secondsElapsed,wristMotion_rotationRateX,wristMotion_rotationRateY,wristMotion_rotationRateZ,wristMotion_gravityX,wristMotion_gravityY,wristMotion_gravityZ,wristMotion_accelerationX,wristMotion_accelerationY,wristMotion_accelerationZ,wristMotion_quaternionW,wristMotion_quaternionX,wristMotion_quaternionY,wristMotion_quaternionZ,weight,set,reps,activity,activityEncoded
0.0,,,,,,,,,,,,,,12.0,2.0,16.0,45DBP,33
0.01,,,,,,,,,,,,,,12.0,2.0,16.0,45DBP,33
0.02,,,,,,,,,,,,,,12.0,2.0,16.0,45DBP,33
0.03,,,,,,,,,,,,,,12.0,2.0,16.0,45DBP,33
0.04,,,,,,,,,,,,,,12.0,2.0,16.0,45DBP,33
0.05,,,,,,,,,,,,,,12.0,2.0,16.0,45DBP,33
0.06,,,,,,,,,,,,,,12.0,2.0,16.0,45DBP,33
0.07,,,,,,,,,,,,,,12.0,2.0,16.0,45DBP,33
0.08,,,,,,,,,,,,,,12.0,2.0,16.0,45DBP,33
0.09,,,,,,,,,,,,,,12.0,2.0,16.0,45DBP,33
0.1,,,,,,,,,,,,,,12.0,2.0,16.0,45DBP,33
0.11,,,,,,,,,,,,,,12.0,2.0,16.0,45DBP,33
0.12,,,,,,,,,,,,,,12.0,2.0,16.0,45DBP,33
0.13,,,,,,,,,,,,,,12.0,2.0,16.0,45DBP,33
0.14,,,,,,,,,,,,,,12.0,2.0,16.0,45DBP,33
0.15,,,,,,,,,,,,,,12.0,2.0,16.0,45DBP,33
0.16,,,,,,,,,,,,,,12.0,2.0,16.0,45DBP,33
0.17,,,,,,,,,,,,,,12.0,2.0,16.0,45DBP,33
0.18,,,,,,,,,,,,,,12.0,2.0,16.0,45DBP,33
0.19,,,,,,,,,,,,,,12.0,2.0,16.0,45DBP,33
0.2,,,,,,,,,,,,,,12.0,2.0,16.0,45DBP,33
0.21,,,,,,,,,,,,,,12.0,2.0,16.0,45DBP,33
0.22,,,,,,,,,,,,,,12.0,2.0,16.0,45DBP,33
0.23,,,,,,,,,,,,,,12.0,2.0,16.0,45DBP,33
0.24,,,,,,,,,,,,,,12.0,2.0,16.0,45DBP,33
0.25,,,,,,,,,,,,,,12.0,2.0,16.0,45DBP,33
0.26,,,,,,,,,,,,,,12.0,2.0,16.0,45DBP,33
0.27,0.02802,0.004559,0.002628,0.200604,-0.148182,-0.968401,0.008243,0.004963,0.0208,0.992069,0.074683,0.101104,0.0,12.0,2.0,16.0,45DBP,33
0.28,0.02052,0.002561,0.00801,0.200619,-0.14844,-0.968358,0.009296,-0.006956,0.023519,0.992058,0.074813,0.101113,8e-06,12.0,2.0,16.0,45DBP,33
0.29,0.019285,0.006266,0.007994,0.200654,-0.148645,-0.96832,0.004821,-0.012656,0.02409,0.992048,0.074914,0.101134,4.2e-05,12.0,2.0,16.0,45DBP,33
0.3,0.018817,0.007987,0.001022,0.200723,-0.148869,-0.968271,-0.00094,-0.006252,0.017053,0.992036,0.075026,0.101172,6e-05,12.0,2.0,16.0,45DBP,33
0.31,-0.013642,0.007893,0.002056,0.200793,-0.148906,-0.968251,-0.006762,-0.017751,0.011616,0.992031,0.075044,0.101208,6.4e-05,12.0,2.0,16.0,45DBP,33
0.32,-0.036355,0.013481,0.009701,0.200883,-0.148669,-0.968268,-0.008333,-0.025495,0.008109,0.992035,0.07492,0.101256,0.000109,12.0,2.0,16.0,45DBP,33
0.33,-0.054017,0.015004,0.002903,0.201024,-0.148251,-0.968303,-0.002813,-0.011753,0.006145,0.992044,0.074703,0.101331,0.000163,12.0,2.0,16.0,45DBP,33
0.34,-0.069432,0.021045,-0.001462,0.201212,-0.147661,-0.968354,-0.008219,-0.007093,0.002961,0.992057,0.074401,0.101426,0.000201,12.0,2.0,16.0,45DBP,33
0.35,-0.079016,0.025395,-0.005461,0.201457,-0.146924,-0.968415,-0.00735,-0.007007,0.00467,0.992072,0.074026,0.10155,0.000225,12.0,2.0,16.0,45DBP,33
0.36,-0.074324,0.034413,-0.003897,0.20175,-0.146161,-0.96847,0.001237,-0.012729,0.009821,0.992086,0.073638,0.101698,0.000244,12.0,2.0,16.0,45DBP,33
0.37,-0.048376,0.044968,0.000715,0.202143,-0.145548,-0.96848,0.001775,-0.006125,0.012181,0.992089,0.073325,0.101899,0.000286,12.0,2.0,16.0,45DBP,33
0.38,-0.013331,0.039312,0.010009,0.202537,-0.145267,-0.96844,0.008354,0.005618,0.013835,0.992078,0.073177,0.102103,0.00035,12.0,2.0,16.0,45DBP,33
0.39,0.004664,0.032193,0.007038,0.202869,-0.14526,-0.968372,0.009381,0.004407,0.012927,0.992061,0.073168,0.102277,0.000417,12.0,2.0,16.0,45DBP,33
0.4,0.012369,0.025529,-0.003015,0.20315,-0.145337,-0.968301,0.005285,-0.001391,0.009958,0.992043,0.073207,0.102422,0.000432,12.0,2.0,16.0,45DBP,33
0.41,0.020731,0.020649,-0.001583,0.203383,-0.145501,-0.968228,0.006242,-0.008796,0.00758,0.992025,0.073293,0.10254,0.000414,12.0,2.0,16.0,45DBP,33
0.42,0.017219,0.011815,0.007497,0.20353,-0.145693,-0.968168,0.001838,-0.019819,0.002576,0.99201,0.073389,0.102616,0.000421,12.0,2.0,16.0,45DBP,33
0.43,0.020245,0.009017,0.011254,0.195406,-0.154667,-0.968449,0.010602,-0.014614,-0.001979,0.99208,0.077831,0.098578,0.001209,12.0,2.0,16.0,45DBP,33
0.44,0.018885,0.006396,0.004938,0.20003,-0.157552,-0.967039,0.011243,-0.002787,-0.005479,0.991725,0.079312,0.100945,0.00119,12.0,2.0,16.0,45DBP,33
0.45,0.01359,0.011327,-0.004756,0.202126,-0.156267,-0.966812,0.003821,-0.000533,-0.00592,0.991668,0.078684,0.101994,0.00103,12.0,2.0,16.0,45DBP,33
0.46,0.000802,0.003422,-0.002886,0.205045,-0.15261,-0.966782,-0.004239,-0.006387,-0.006897,0.99166,0.076874,0.103439,0.000701,12.0,2.0,16.0,45DBP,33
0.47,-0.014895,0.000913,-0.001694,0.206969,-0.1505,-0.966703,-0.002104,-0.004057,-0.003161,0.99164,0.075829,0.104396,0.000519,12.0,2.0,16.0,45DBP,33
0.48,-0.027157,-0.000778,-0.000159,0.207493,-0.149879,-0.966687,-0.001545,0.003074,0.002056,0.991636,0.07552,0.104659,0.000492,12.0,2.0,16.0,45DBP,33
0.49,-0.019067,0.001295,0.006151,0.207939,-0.150413,-0.966508,-0.006706,0.002509,0.005906,0.991591,0.075786,0.104893,0.000544,12.0,2.0,16.0,45DBP,33
0.5,-0.01626,-0.003273,0.006319,0.207589,-0.152141,-0.966312,-0.008569,0.000484,0.002445,0.991542,0.076646,0.104734,0.000699,12.0,2.0,16.0,45DBP,33
0.51,-0.018273,0.000713,0.010578,0.207255,-0.153819,-0.966119,-0.004527,0.002223,0.003197,0.991493,0.077479,0.104583,0.000852,12.0,2.0,16.0,45DBP,33
0.52,-0.028348,0.004937,0.009316,0.207497,-0.15417,-0.966011,0.001472,-0.001043,0.007347,0.991466,0.07765,0.104715,0.000929,12.0,2.0,16.0,45DBP,33
0.53,-0.032068,0.01144,-0.01161,0.2073,-0.154011,-0.966078,-0.001154,-0.008022,0.009703,0.991483,0.077565,0.104616,0.000968,12.0,2.0,16.0,45DBP,33
0.54,-0.050688,-0.001172,-0.027753,0.206725,-0.153945,-0.966212,-0.007857,-0.022141,0.008509,0.991516,0.077534,0.104319,0.000926,12.0,2.0,16.0,45DBP,33
0.55,-0.049716,-0.002363,-0.002856,0.206525,-0.15342,-0.966338,-0.012601,-0.021705,0.007735,0.991548,0.077271,0.104212,0.000886,12.0,2.0,16.0,45DBP,33
0.56,0.004887,-0.00155,0.018728,0.2065,-0.15278,-0.966445,0.011929,0.005578,0.012694,0.991575,0.076942,0.104199,0.000921,12.0,2.0,16.0,45DBP,33
0.57,0.025877,-0.003722,0.029718,0.206191,-0.152759,-0.966514,0.021775,0.016635,0.011223,0.991593,0.076919,0.10405,0.001033,12.0,2.0,16.0,45DBP,33
0.58,0.006651,-0.00918,0.027846,0.205696,-0.152952,-0.966589,0.003197,-0.003542,0.009772,0.991611,0.076999,0.10381,0.001187,12.0,2.0,16.0,45DBP,33
0.59,-0.032899,-0.016036,0.034093,0.205407,-0.152843,-0.966668,-0.005487,-0.017842,0.009759,0.991631,0.076926,0.103675,0.001346,12.0,2.0,16.0,45DBP,33
0.6,-0.069189,-0.020036,0.039414,0.205451,-0.152611,-0.966695,-0.000724,-0.020958,0.013723,0.991638,0.076787,0.103712,0.001547,12.0,2.0,16.0,45DBP,33
0.61,-0.095121,-0.021888,0.058983,0.205321,-0.152507,-0.966739,0.004899,-0.017231,0.013675,0.991648,0.076703,0.103668,0.001845,12.0,2.0,16.0,45DBP,33
0.62,-0.126285,-0.02484,0.066844,0.204741,-0.152855,-0.966807,0.003861,-0.007713,0.017726,0.991664,0.076832,0.103408,0.002283,12.0,2.0,16.0,45DBP,33
0.63,-0.148703,-0.016159,0.072415,0.20396,-0.152816,-0.966979,0.005528,0.001861,0.024062,0.991706,0.076759,0.103048,0.002776,12.0,2.0,16.0,45DBP,33
0.64,-0.169667,-0.020601,0.079695,0.204452,-0.15129,-0.967115,0.003587,-0.001038,0.030851,0.991739,0.075943,0.103322,0.003188,12.0,2.0,16.0,45DBP,33
0.65,-0.229921,-0.023891,0.052117,0.205104,-0.149073,-0.967321,0.006749,0.003428,0.038183,0.99179,0.074779,0.103671,0.003581,12.0,2.0,16.0,45DBP,33
0.66,-0.299332,-0.067896,-0.065966,0.204826,-0.14677,-0.967732,0.036263,-0.009892,0.041737,0.991894,0.073609,0.103517,0.003598,12.0,2.0,16.0,45DBP,33
0.67,-0.342836,-0.054994,0.032871,0.20417,-0.144211,-0.968255,0.039498,-0.016052,0.049798,0.992025,0.072306,0.103172,0.003648,12.0,2.0,16.0,45DBP,33
0.68,-0.333385,-0.047799,0.149327,0.203625,-0.141807,-0.968725,-0.000439,0.007087,0.05332,0.992141,0.071019,0.102927,0.004303,12.0,2.0,16.0,45DBP,33
0.69,-0.369767,-0.048179,0.178102,0.203082,-0.1393,-0.969202,-0.003497,-4.3e-05,0.055567,0.992256,0.069643,0.102707,0.005324,12.0,2.0,16.0,45DBP,33
0.7,-0.465063,-0.055294,0.148611,0.202477,-0.135948,-0.969805,0.011115,-0.024865,0.063143,0.992402,0.067839,0.102448,0.006348,12.0,2.0,16.0,45DBP,33
0.71,-0.592007,-0.06915,0.122464,0.201839,-0.13132,-0.970575,0.027623,-0.056454,0.064554,0.99259,0.065401,0.102153,0.007283,12.0,2.0,16.0,45DBP,33
0.72,-0.688012,-0.069454,0.100248,0.201157,-0.125582,-0.971476,0.035674,-0.076078,0.064432,0.99281,0.062409,0.10182,0.008156,12.0,2.0,16.0,45DBP,33
0.73,-0.735548,-0.066731,0.080698,0.200381,-0.118818,-0.972486,0.033735,-0.080111,0.069517,0.993057,0.058911,0.101421,0.008941,12.0,2.0,16.0,45DBP,33
0.74,-0.788611,-0.079876,0.061697,0.199614,-0.111549,-0.973505,0.047319,-0.087593,0.071588,0.993307,0.055168,0.101016,0.009658,12.0,2.0,16.0,45DBP,33
0.75,-0.853715,-0.125603,0.049154,0.198557,-0.103627,-0.974596,0.081533,-0.10107,0.081194,0.993575,0.051105,0.100451,0.01032,12.0,2.0,16.0,45DBP,33
0.76,-0.894452,-0.070199,0.041979,0.197475,-0.095156,-0.975679,0.106663,-0.106001,0.095079,0.993841,0.046772,0.099865,0.010955,12.0,2.0,16.0,45DBP,33
0.77,-1.435746,-0.189795,1.574394,0.196411,-0.086,-0.976743,0.116135,-0.134581,0.126813,0.994064,0.041815,0.099399,0.014422,12.0,2.0,16.0,45DBP,33
0.78,-1.741023,-0.430726,1.876483,0.191175,-0.073278,-0.978817,0.582919,-0.419901,0.188564,0.994394,0.034479,0.096968,0.024272,12.0,2.0,16.0,45DBP,33
0.79,-1.8137,-0.450527,1.298916,0.185352,-0.059219,-0.980886,0.267102,-0.21608,0.168279,0.994662,0.026646,0.094058,0.033021,12.0,2.0,16.0,45DBP,33
0.8,-1.986589,-0.436733,1.166357,0.180339,-0.042448,-0.982688,0.158314,-0.071275,0.207145,0.994855,0.017652,0.091348,0.040098,12.0,2.0,16.0,45DBP,33
0.81,-1.774607,-0.433193,1.051484,0.175504,-0.025838,-0.98414,0.140475,-0.042873,0.171518,0.994947,0.008855,0.08861,0.046368,12.0,2.0,16.0,45DBP,33
0.82,-1.619418,-0.364956,1.244673,0.171326,-0.011103,-0.985152,0.097885,0.017725,0.15634,0.994884,0.001013,0.086157,0.052736,12.0,2.0,16.0,45DBP,33
0.83,-1.554961,-0.314545,1.494538,0.167978,0.00215,-0.985788,0.165701,0.005479,0.147104,0.994618,-0.006173,0.08407,0.060243,12.0,2.0,16.0,45DBP,33
0.84,-1.619253,-0.344548,1.609982,0.16494,0.015193,-0.986187,0.254783,-0.030909,0.127651,0.994172,-0.013307,0.082034,0.068662,12.0,2.0,16.0,45DBP,33
0.85,-1.783609,-0.436964,1.661207,0.161531,0.029269,-0.986434,0.324477,-0.083819,0.111052,0.993585,-0.020941,0.079653,0.077496,12.0,2.0,16.0,45DBP,33
0.86,-1.983057,-0.551081,1.73263,0.157327,0.045211,-0.986511,0.369361,-0.114455,0.107025,0.992842,-0.029464,0.076657,0.086715,12.0,2.0,16.0,45DBP,33
0.87,-2.105532,-0.677961,1.857695,0.152266,0.062695,-0.986349,0.381364,-0.114987,0.11904,0.991899,-0.038704,0.07299,0.096489,12.0,2.0,16.0,45DBP,33
0.88,-2.133148,-0.794868,1.985793,0.146352,0.080806,-0.985927,0.36935,-0.087703,0.129008,0.990719,-0.048194,0.068658,0.106957,12.0,2.0,16.0,45DBP,33
0.89,-2.111496,-0.850833,2.109647,0.140053,0.098833,-0.985199,0.341896,-0.043504,0.141861,0.989276,-0.057578,0.063916,0.118034,12.0,2.0,16.0,45DBP,33
0.9,-2.091494,-0.887502,2.234885,0.13381,0.116573,-0.984127,0.312205,-0.035977,0.159679,0.987541,-0.066769,0.058979,0.129716,12.0,2.0,16.0,45DBP,33
0.91,-2.109214,-0.9281,2.336812,0.127743,0.134224,-0.982683,0.303836,-0.047753,0.169191,0.985492,-0.075861,0.053886,0.141939,12.0,2.0,16.0,45DBP,33
0.92,-2.24952,-0.975273,2.463755,0.121836,0.152561,-0.980755,0.296666,-0.06937,0.183514,0.98308,-0.085234,0.048554,0.154698,12.0,2.0,16.0,45DBP,33
0.93,-2.501806,-1.043101,2.601366,0.11609,0.172819,-0.978088,0.302886,-0.121626,0.198517,0.980187,-0.095505,0.042833,0.16816,12.0,2.0,16.0,45DBP,33
0.94,-2.79771,-1.13614,2.693224,0.110321,0.195714,-0.974436,0.315948,-0.163945,0.200937,0.976735,-0.107,0.036512,0.182226,12.0,2.0,16.0,45DBP,33
0.95,-3.098876,-1.232713,2.759776,0.104591,0.221538,-0.969526,0.31353,-0.167538,0.204084,0.972661,-0.119854,0.029527,0.196706,12.0,2.0,16.0,45DBP,33
0.96,-3.29588,-1.327128,2.758763,0.098564,0.249765,-0.963277,0.290672,-0.131174,0.238286,0.967975,-0.133754,0.02171,0.211337,12.0,2.0,16.0,45DBP,33
0.97,-3.418448,-1.333166,2.97553,0.093329,0.279294,-0.955659,0.243494,-0.071042,0.28766,0.962591,-0.148274,0.013607,0.226382,12.0,2.0,16.0,45DBP,33
0.98,-3.509914,-1.353711,3.164201,0.089672,0.309506,-0.94666,0.281437,-0.117123,0.310628,0.956334,-0.163217,0.005514,0.242394,12.0,2.0,16.0,45DBP,33
0.99,-3.520957,-1.459946,3.256639,0.086896,0.339883,-0.936445,0.338443,-0.149469,0.282316,0.9493,-0.17824,-0.002851,0.258944,12.0,2.0,16.0,45DBP,33
1.0,-3.462428,-1.544476,3.323997,0.084536,0.369664,-0.925312,0.359464,-0.12531,0.248554,0.941586,-0.192897,-0.011614,0.275812,12.0,2.0,16.0,45DBP,33
1.01,-3.317827,-1.579744,3.348895,0.082967,0.398154,-0.913559,0.334056,-0.04061,0.300385,0.933305,-0.206887,-0.020454,0.292783,12.0,2.0,16.0,45DBP,33
1.02,-3.114085,-1.563114,3.391241,0.082542,0.424624,-0.901599,0.345391,0.023038,0.310001,0.924589,-0.219904,-0.02903,0.309732,12.0,2.0,16.0,45DBP,33
1.03,-2.924367,-1.552134,3.512282,0.083667,0.448835,-0.889689,0.390699,0.034441,0.286769,0.915419,-0.231901,-0.03711,0.326883,12.0,2.0,16.0,45DBP,33
1.04,-2.779325,-1.55501,3.658021,0.086418,0.470995,-0.877893,0.397041,0.021375,0.284661,0.905682,-0.243008,-0.044728,0.344508,12.0,2.0,16.0,45DBP,33
1.05,-2.675169,-1.519152,3.75576,0.09086,0.491529,-0.866108,0.354804,0.012514,0.291707,0.895347,-0.253483,-0.051888,0.362502,12.0,2.0,16.0,45DBP,33
1.06,-2.60523,-1.47298,3.819422,0.096974,0.510695,-0.854276,0.307704,-0.017516,0.298489,0.884464,-0.263499,-0.058569,0.380606,12.0,2.0,16.0,45DBP,33
1.07,-2.614747,-1.425625,3.871,0.104694,0.528951,-0.84217,0.280728,-0.058675,0.288779,0.873009,-0.273328,-0.064858,0.398674,12.0,2.0,16.0,45DBP,33
1.08,-2.694525,-1.372062,3.898723,0.113907,0.546894,-0.829417,0.252227,-0.075444,0.296076,0.860899,-0.283301,-0.070939,0.416606,12.0,2.0,16.0,45DBP,33
1.09,-2.827358,-1.294853,3.889889,0.124599,0.56497,-0.81565,0.23261,-0.055662,0.298041,0.848118,-0.293702,-0.076904,0.43419,12.0,2.0,16.0,45DBP,33
1.1,-2.961794,-1.201414,3.876848,0.13682,0.583348,-0.800616,0.223165,-0.030079,0.315707,0.834669,-0.304698,-0.082773,0.45126,12.0,2.0,16.0,45DBP,33
1.11,-3.04582,-1.118877,3.891703,0.15065,0.601621,-0.784447,0.211944,-0.026457,0.347069,0.820561,-0.316149,-0.088466,0.46787,12.0,2.0,16.0,45DBP,33
1.12,-3.163401,-1.014238,3.883227,0.166151,0.619521,-0.767195,0.202486,-0.013777,0.346205,0.805799,-0.327995,-0.093924,0.484031,12.0,2.0,16.0,45DBP,33
1.13,-3.211102,-0.908265,3.840558,0.183202,0.637024,-0.748758,0.17712,0.022049,0.365548,0.790475,-0.340279,-0.099153,0.499528,12.0,2.0,16.0,45DBP,33
1.14,-3.275783,-0.803685,3.791228,0.201542,0.653701,-0.729422,0.137783,0.03061,0.352987,0.774714,-0.35277,-0.104126,0.514324,12.0,2.0,16.0,45DBP,33
1.15,-3.329428,-0.698923,3.725789,0.221042,0.669548,-0.709117,0.103635,0.05497,0.350947,0.758554,-0.365496,-0.108877,0.52835,12.0,2.0,16.0,45DBP,33
1.16,-3.390122,-0.598664,3.654375,0.241532,0.684528,-0.68781,0.073012,0.104397,0.329015,0.742042,-0.37845,-0.113449,0.541552,12.0,2.0,16.0,45DBP,33
1.17,-3.409664,-0.482121,3.599117,0.262964,0.69846,-0.665585,0.051245,0.150356,0.302594,0.725209,-0.391574,-0.117803,0.553954,12.0,2.0,16.0,45DBP,33
1.18,-3.455878,-0.36386,3.486339,0.28532,0.711168,-0.642521,0.035542,0.205534,0.303181,0.70817,-0.404846,-0.121818,0.565469,12.0,2.0,16.0,45DBP,33
1.19,-3.624004,-0.328436,3.299895,0.307561,0.723393,-0.618149,0.013026,0.293498,0.312287,0.690966,-0.418354,-0.126117,0.575883,12.0,2.0,16.0,45DBP,33
1.2,-3.739387,-0.363332,3.117554,0.328926,0.735583,-0.592221,0.007011,0.37573,0.234814,0.673556,-0.432061,-0.131198,0.585177,12.0,2.0,16.0,45DBP,33
1.21,-3.556868,-0.468575,3.043057,0.349328,0.746448,-0.566379,0.021262,0.428036,0.106662,0.656147,-0.445122,-0.136665,0.593853,12.0,2.0,16.0,45DBP,33
1.22,-3.12167,-0.514941,3.099642,0.369585,0.754018,-0.543014,0.037382,0.434978,0.022064,0.639057,-0.456618,-0.141396,0.602589,12.0,2.0,16.0,45DBP,33
1.23,-2.720278,-0.481324,3.181004,0.39073,0.757611,-0.522834,0.013017,0.385959,0.03617,0.622403,-0.466566,-0.144565,0.611581,12.0,2.0,16.0,45DBP,33
1.24,-2.303756,-0.364237,3.247082,0.412898,0.75767,-0.505422,-0.029201,0.307775,0.033407,0.606227,-0.475337,-0.146094,0.620645,12.0,2.0,16.0,45DBP,33
1.25,-1.931898,-0.262988,3.285869,0.436146,0.754237,-0.490819,-0.057484,0.194326,0.043264,0.590722,-0.483065,-0.145734,0.629648,12.0,2.0,16.0,45DBP,33
1.26,-1.895414,-0.268003,3.2309,0.459472,0.748796,-0.477693,-0.106963,0.058821,0.061113,0.575532,-0.490158,-0.144565,0.638443,12.0,2.0,16.0,45DBP,33
1.27,-1.868168,-0.268019,3.192688,0.482151,0.742612,-0.464819,-0.132466,-0.032987,0.07781,0.560333,-0.496989,-0.143503,0.646866,12.0,2.0,16.0,45DBP,33
1.28,-1.744142,-0.218394,3.176914,0.504635,0.735125,-0.452696,-0.132535,-0.017657,0.06497,0.545232,-0.503455,-0.142073,0.655035,12.0,2.0,16.0,45DBP,33
1.29,-1.721175,-0.095524,3.011753,0.526645,0.726819,-0.440884,-0.124255,0.084246,0.08154,0.530499,-0.509771,-0.140325,0.662581,12.0,2.0,16.0,45DBP,33
1.3,-1.705895,0.028184,2.824745,0.547615,0.71862,-0.428606,-0.081505,0.275673,0.088488,0.516333,-0.516209,-0.138653,0.669106,12.0,2.0,16.0,45DBP,33
1.31,-1.48126,0.046074,2.736962,0.567629,0.709959,-0.41684,-0.016024,0.406771,0.073273,0.502842,-0.522376,-0.136759,0.67496,12.0,2.0,16.0,45DBP,33
1.32,-1.056424,0.016736,2.727023,0.587025,0.699428,-0.407679,0.04446,0.492085,0.049036,0.490253,-0.527496,-0.133824,0.680802,12.0,2.0,16.0,45DBP,33
1.33,-0.648572,0.020972,2.729005,0.606044,0.686552,-0.401691,0.067799,0.546236,0.05077,0.478669,-0.531411,-0.129446,0.68682,12.0,2.0,16.0,45DBP,33
1.34,-0.34769,0.093155,2.743642,0.624876,0.671652,-0.398012,0.046465,0.515406,0.089708,0.467936,-0.534499,-0.123713,0.69285,12.0,2.0,16.0,45DBP,33
1.35,-0.172977,0.191794,2.76418,0.643758,0.655155,-0.395407,-0.011114,0.376171,0.155768,0.457744,-0.537251,-0.116867,0.698694,12.0,2.0,16.0,45DBP,33
1.36,-0.088108,0.294386,2.794086,0.662734,0.637447,-0.392995,-0.075149,0.187016,0.229116,0.447764,-0.539969,-0.109254,0.704276,12.0,2.0,16.0,45DBP,33
1.37,-0.050557,0.411259,2.777765,0.681687,0.618894,-0.390221,-0.128464,0.03882,0.280404,0.437888,-0.542828,-0.101129,0.709482,12.0,2.0,16.0,45DBP,33
1.38,0.012833,0.527485,2.676912,0.700231,0.60007,-0.386772,-0.154699,-0.019672,0.275505,0.428306,-0.545907,-0.092731,0.714101,12.0,2.0,16.0,45DBP,33
1.39,0.13056,0.592475,2.51912,0.717784,0.581308,-0.383233,-0.14352,0.005423,0.215402,0.419422,-0.54891,-0.084148,0.718124,12.0,2.0,16.0,45DBP,33
1.4,0.282707,0.603022,2.367628,0.73409,0.56277,-0.380003,-0.091527,0.110509,0.144056,0.411409,-0.551642,-0.075433,0.721626,12.0,2.0,16.0,45DBP,33
1.41,0.558037,0.581895,2.278986,0.749208,0.543969,-0.377869,-0.028322,0.226326,0.069016,0.404359,-0.553778,-0.066301,0.724864,12.0,2.0,16.0,45DBP,33
1.42,0.92875,0.57417,2.272722,0.763545,0.523951,-0.377457,0.023686,0.313115,0.018555,0.398331,-0.555086,-0.056133,0.728053,12.0,2.0,16.0,45DBP,33
1.43,1.254767,0.590869,2.322843,0.777553,0.502063,-0.378609,0.04897,0.35812,0.005745,0.393138,-0.555615,-0.044578,0.731264,12.0,2.0,16.0,45DBP,33
1.44,1.440985,0.624144,2.351129,0.791359,0.478484,-0.380532,0.046395,0.357591,0.018426,0.388449,-0.555624,-0.031876,0.73442,12.0,2.0,16.0,45DBP,33
1.45,1.421051,0.66854,2.316674,0.804754,0.454275,-0.382106,0.021372,0.325877,0.045268,0.38393,-0.555512,-0.018797,0.737327,12.0,2.0,16.0,45DBP,33
1.46,1.227525,0.724974,2.225988,0.817503,0.430672,-0.382375,-0.005141,0.267006,0.088704,0.379284,-0.555675,-0.006187,0.739818,12.0,2.0,16.0,45DBP,33
1.47,0.857536,0.782776,2.114367,0.829529,0.408715,-0.380571,-0.020096,0.196266,0.124925,0.37415,-0.556496,0.005197,0.74182,12.0,2.0,16.0,45DBP,33
1.48,0.384529,0.83329,1.988075,0.840803,0.389161,-0.376302,-0.019408,0.149337,0.128774,0.368224,-0.558239,0.014766,0.743345,12.0,2.0,16.0,45DBP,33
1.49,-0.10394,0.84432,1.829751,0.851229,0.372443,-0.369724,-0.006991,0.127236,0.119235,0.361427,-0.560933,0.022183,0.744468,12.0,2.0,16.0,45DBP,33
1.5,-0.533998,0.835952,1.65658,0.860703,0.35866,-0.361323,0.009964,0.133604,0.103053,0.353896,-0.564436,0.027402,0.745264,12.0,2.0,16.0,45DBP,33
1.51,-0.83364,0.827973,1.498659,0.869249,0.347491,-0.351647,0.021299,0.158551,0.086586,0.345916,-0.568535,0.030733,0.745765,12.0,2.0,16.0,45DBP,33
1.52,-0.97079,0.817724,1.364784,0.877024,0.338145,-0.341301,0.027135,0.195729,0.058922,0.33783,-0.57295,0.032824,0.746004,12.0,2.0,16.0,45DBP,33
1.53,-0.97388,0.814942,1.239447,0.884144,0.329942,-0.330798,0.033061,0.24356,0.023837,0.329995,-0.57743,0.034287,0.745991,12.0,2.0,16.0,45DBP,33
1.54,-0.872434,0.82273,1.117018,0.890664,0.322501,-0.320486,0.040855,0.293207,-0.014505,0.322751,-0.5818,0.035572,0.745704,12.0,2.0,16.0,45DBP,33
1.55,-0.713924,0.830703,1.003862,0.89666,0.315531,-0.310549,0.052497,0.331808,-0.047453,0.316327,-0.585965,0.037029,0.745125,12.0,2.0,16.0,45DBP,33
1.56,-0.58181,0.817116,0.907065,0.902173,0.308892,-0.301113,0.063342,0.344154,-0.070225,0.310705,-0.589867,0.038731,0.744325,12.0,2.0,16.0,45DBP,33
1.57,-0.528248,0.782194,0.828236,0.907217,0.302643,-0.292173,0.065485,0.330703,-0.084048,0.305682,-0.593526,0.040501,0.743401,12.0,2.0,16.0,45DBP,33
1.58,-0.553573,0.744024,0.775123,0.911827,0.296903,-0.283586,0.052208,0.279223,-0.082808,0.300937,-0.597025,0.042044,0.742448,12.0,2.0,16.0,45DBP,33
1.59,-0.6229,0.702152,0.734407,0.916076,0.291634,-0.275233,0.017532,0.186439,-0.063817,0.296222,-0.60043,0.043212,0.741532,12.0,2.0,16.0,45DBP,33
1.6,-0.701738,0.650925,0.678999,0.91997,0.286907,-0.267093,-0.026721,0.091922,-0.059751,0.29144,-0.603761,0.043887,0.740681,12.0,2.0,16.0,45DBP,33
1.61,-0.751796,0.611852,0.591646,0.923452,0.282934,-0.2592,-0.07459,0.037729,-0.061952,0.286728,-0.60701,0.044035,0.739856,12.0,2.0,16.0,45DBP,33
1.62,-0.763633,0.593883,0.489971,0.926513,0.279864,-0.251494,-0.118957,0.02754,-0.063555,0.28228,-0.610197,0.04373,0.738962,12.0,2.0,16.0,45DBP,33
1.63,-0.738545,0.589002,0.418711,0.92924,0.277535,-0.243899,-0.148509,0.055304,-0.057692,0.278171,-0.613342,0.043155,0.73795,12.0,2.0,16.0,45DBP,33
1.64,-0.675792,0.584546,0.390516,0.931757,0.275517,-0.236474,-0.166666,0.087672,-0.054328,0.274385,-0.616401,0.042576,0.736851,12.0,2.0,16.0,45DBP,33
1.65,-0.607566,0.584494,0.394314,0.934201,0.273344,-0.229241,-0.173383,0.105928,-0.062324,0.270825,-0.619352,0.042223,0.735713,12.0,2.0,16.0,45DBP,33
1.66,-0.548798,0.580878,0.393596,0.936595,0.27096,-0.222192,-0.176113,0.102987,-0.067557,0.26746,-0.622198,0.042112,0.734548,12.0,2.0,16.0,45DBP,33
1.67,-0.511224,0.573505,0.359319,0.938889,0.268547,-0.215336,-0.176331,0.092308,-0.067058,0.264286,-0.624946,0.042123,0.733363,12.0,2.0,16.0,45DBP,33
1.68,-0.501601,0.571617,0.290218,0.940979,0.266556,-0.208583,-0.166061,0.093597,-0.061849,0.261382,-0.627647,0.04204,0.7321,12.0,2.0,16.0,45DBP,33
1.69,-0.496124,0.580277,0.204057,0.942819,0.265254,-0.201823,-0.151971,0.108937,-0.043859,0.25879,-0.630354,0.041743,0.730711,12.0,2.0,16.0,45DBP,33
1.7,-0.495942,0.598417,0.139084,0.944434,0.264654,-0.194942,-0.13346,0.12414,-0.022084,0.256486,-0.633111,0.041221,0.729168,12.0,2.0,16.0,45DBP,33
1.71,-0.462591,0.636682,0.108642,0.945939,0.26444,-0.187806,-0.108567,0.114726,-0.013427,0.254395,-0.63596,0.040642,0.727452,12.0,2.0,16.0,45DBP,33
1.72,-0.398043,0.64237,0.09687,0.947394,0.264263,-0.180579,-0.0727,0.078312,-0.008172,0.252523,-0.638821,0.040221,0.725618,12.0,2.0,16.0,45DBP,33
1.73,-0.357247,0.636727,0.082716,0.948772,0.264065,-0.173495,-0.025906,0.052448,-0.011442,0.250874,-0.641603,0.039971,0.723747,12.0,2.0,16.0,45DBP,33
1.74,-0.354541,0.625518,0.06048,0.950033,0.263999,-0.166557,0.020319,0.051721,-0.006691,0.249362,-0.644317,0.039714,0.721871,12.0,2.0,16.0,45DBP,33
1.75,-0.376488,0.625728,0.080869,0.95123,0.263962,-0.159643,0.056705,0.056641,0.012899,0.247809,-0.647014,0.039381,0.720008,12.0,2.0,16.0,45DBP,33
1.76,-0.385676,0.62012,0.148686,0.952506,0.263476,-0.152685,0.079186,0.050809,0.032049,0.246044,-0.649711,0.039153,0.718195,12.0,2.0,16.0,45DBP,33
1.77,-0.417785,0.606746,0.217499,0.953909,0.262315,-0.145766,0.089014,0.05078,0.029173,0.243964,-0.652373,0.039077,0.716495,12.0,2.0,16.0,45DBP,33
1.78,-0.444691,0.591308,0.258547,0.955388,0.26065,-0.138908,0.085383,0.070573,0.008812,0.241573,-0.654998,0.039033,0.71491,12.0,2.0,16.0,45DBP,33
1.79,-0.421576,0.583157,0.285746,0.956893,0.258644,-0.132131,0.065598,0.096077,-0.017771,0.239049,-0.657577,0.039069,0.713387,12.0,2.0,16.0,45DBP,33
1.8,-0.336221,0.576371,0.320871,0.958417,0.256245,-0.125602,0.036792,0.108211,-0.063714,0.236597,-0.660036,0.039386,0.711915,12.0,2.0,16.0,45DBP,33
1.81,-0.226116,0.563064,0.373953,0.960001,0.253266,-0.11939,0.006521,0.109161,-0.098002,0.234314,-0.662336,0.0402,0.710487,12.0,2.0,16.0,45DBP,33
1.82,-0.091267,0.558794,0.446729,0.961689,0.249495,-0.113608,-0.018833,0.076677,-0.101511,0.232204,-0.664426,0.041649,0.709144,12.0,2.0,16.0,45DBP,33
1.83,-0.030193,0.560255,0.472812,0.963461,0.245076,-0.108073,-0.036368,0.043529,-0.084921,0.230262,-0.666376,0.043659,0.707825,12.0,2.0,16.0,45DBP,33
1.84,-0.045772,0.541896,0.464956,0.965186,0.240577,-0.102657,-0.051093,0.04226,-0.071293,0.228358,-0.668266,0.045738,0.706528,12.0,2.0,16.0,45DBP,33
1.85,-0.030709,0.516345,0.484481,0.966843,0.236053,-0.097429,-0.059983,0.036911,-0.068342,0.226405,-0.670078,0.047756,0.705305,12.0,2.0,16.0,45DBP,33
1.86,0.046149,0.495511,0.53281,0.968514,0.231118,-0.092548,-0.070214,0.03324,-0.067883,0.224513,-0.671729,0.050063,0.704179,12.0,2.0,16.0,45DBP,33
1.87,0.12878,0.473965,0.573468,0.97022,0.225642,-0.088079,-0.081213,0.064519,-0.064707,0.222739,-0.673181,0.052795,0.703155,12.0,2.0,16.0,45DBP,33
1.88,0.206032,0.463475,0.591946,0.971928,0.21982,-0.08388,-0.088978,0.109129,-0.089872,0.22112,-0.674491,0.055874,0.702172,12.0,2.0,16.0,45DBP,33
1.89,0.317125,0.46565,0.612606,0.973613,0.213754,-0.079913,-0.089321,0.110617,-0.10777,0.219749,-0.675665,0.059328,0.70119,12.0,2.0,16.0,45DBP,33
1.9,0.37535,0.480254,0.644381,0.975305,0.207353,-0.076061,-0.075265,0.068145,-0.101872,0.218599,-0.676738,0.06321,0.700175,12.0,2.0,16.0,45DBP,33
1.91,0.354451,0.46944,0.66537,0.976997,0.200676,-0.072147,-0.046761,0.021782,-0.083356,0.217415,-0.677793,0.06726,0.699145,12.0,2.0,16.0,45DBP,33
1.92,0.244436,0.439299,0.673265,0.978637,0.193924,-0.06829,-0.009749,-0.017838,-0.04992,0.215949,-0.678824,0.07108,0.69822,12.0,2.0,16.0,45DBP,33
1.93,0.072579,0.420768,0.674155,0.980207,0.187218,-0.06437,0.022326,-0.03199,-0.011817,0.213994,-0.679911,0.0744,0.697418,12.0,2.0,16.0,45DBP,33
1.94,-0.079574,0.422967,0.673662,0.981707,0.180618,-0.060233,0.038877,-0.020385,0.018759,0.211454,-0.68113,0.077104,0.696709,12.0,2.0,16.0,45DBP,33
1.95,-0.141968,0.422935,0.668141,0.983148,0.174073,-0.055839,0.046377,0.012863,0.014762,0.20854,-0.682474,0.079434,0.69601,12.0,2.0,16.0,45DBP,33
1.96,-0.055566,0.41119,0.678719,0.984525,0.167492,-0.051541,0.053622,0.055347,-0.003833,0.205663,-0.683767,0.081803,0.695322,12.0,2.0,16.0,45DBP,33
1.97,0.066986,0.392344,0.691349,0.985852,0.160713,-0.047602,0.056994,0.092705,-0.002767,0.203126,-0.684868,0.084586,0.694652,12.0,2.0,16.0,45DBP,33
1.98,0.160272,0.395682,0.679933,0.987114,0.153885,-0.043874,0.048118,0.114945,0.019567,0.200964,-0.685831,0.087739,0.693938,12.0,2.0,16.0,45DBP,33
1.99,0.20969,0.416419,0.648207,0.988285,0.147248,-0.040125,0.039913,0.092849,0.030802,0.199122,-0.686763,0.091075,0.693118,12.0,2.0,16.0,45DBP,33
2.0,0.194753,0.4342,0.614929,0.989357,0.140931,-0.036202,0.042625,0.048293,0.041756,0.197444,-0.687744,0.094377,0.692182,12.0,2.0,16.0,45DBP,33
2.01,0.129103,0.455769,0.581383,0.99033,0.134981,-0.032032,0.056941,0.012053,0.059009,0.195742,-0.688833,0.097435,0.691159,12.0,2.0,16.0,45DBP,33
2.02,0.050534,0.478903,0.56273,0.991225,0.129291,-0.027521,0.075792,-0.010562,0.065988,0.193849,-0.690076,0.100173,0.69006,12.0,2.0,16.0,45DBP,33
2.03,-0.034561,0.475005,0.537177,0.992043,0.123815,-0.022799,0.091636,-0.020116,0.058566,0.191731,-0.691434,0.102566,0.68894,12.0,2.0,16.0,45DBP,33
2.04,-0.075295,0.476468,0.491352,0.992764,0.118726,-0.017999,0.094501,-0.012922,0.063409,0.189499,-0.692866,0.104584,0.687815,12.0,2.0,16.0,45DBP,33
2.05,-0.016812,0.505241,0.466277,0.993399,0.113966,-0.013056,0.089182,-0.004164,0.088159,0.187411,-0.69435,0.106535,0.686589,12.0,2.0,16.0,45DBP,33
2.06,0.122785,0.530017,0.439265,0.99396,0.109452,-0.007947,0.089536,0.019027,0.111569,0.18574,-0.695843,0.108759,0.685182,12.0,2.0,16.0,45DBP,33
2.07,0.300417,0.503539,0.404128,0.994443,0.105228,-0.003128,0.105883,0.05148,0.135636,0.184764,-0.697148,0.111446,0.683686,12.0,2.0,16.0,45DBP,33
2.08,0.496288,0.508492,0.383561,0.994853,0.101318,0.001574,0.116628,0.082657,0.162153,0.18449,-0.698319,0.114618,0.682039,12.0,2.0,16.0,45DBP,33
2.09,0.74276,0.491912,0.39801,0.995224,0.097432,0.005921,0.112472,0.037074,0.197723,0.185074,-0.699208,0.118611,0.680285,12.0,2.0,16.0,45DBP,33
2.1,0.782779,0.425002,0.384162,0.995558,0.093638,0.009824,0.139437,0.015218,0.1234,0.186144,-0.699847,0.122987,0.678556,12.0,2.0,16.0,45DBP,33
2.11,0.969196,0.374975,0.42385,0.995881,0.089738,0.012975,0.174728,-0.056733,0.044322,0.187597,-0.700123,0.127729,0.676993,12.0,2.0,16.0,45DBP,33
2.12,0.943512,0.322596,0.451112,0.996218,0.085478,0.015593,0.167112,-0.165297,0.082078,0.189327,-0.700088,0.13294,0.675543,12.0,2.0,16.0,45DBP,33
2.13,0.558544,0.272919,0.379156,0.996517,0.081436,0.017923,0.152408,-0.200089,0.092733,0.190383,-0.700086,0.137261,0.674383,12.0,2.0,16.0,45DBP,33
2.14,0.172445,0.256357,0.316231,0.996741,0.078078,0.020255,0.128381,-0.249313,0.085763,0.190299,-0.700392,0.139924,0.673542,12.0,2.0,16.0,45DBP,33
2.15,-0.15267,0.267046,0.298196,0.99692,0.075011,0.022868,0.114804,-0.291258,0.062566,0.189112,-0.701051,0.141285,0.672906,12.0,2.0,16.0,45DBP,33
2.16,-0.388529,0.252482,0.248593,0.99706,0.072196,0.025678,0.100993,-0.247352,0.046435,0.187005,-0.702001,0.141541,0.672451,12.0,2.0,16.0,45DBP,33
2.17,-0.380507,0.260107,0.229493,0.997157,0.069743,0.028524,0.081548,-0.17927,0.040644,0.184616,-0.703072,0.141249,0.672053,12.0,2.0,16.0,45DBP,33
2.18,-0.188486,0.27289,0.243959,0.997239,0.067305,0.031377,0.077666,-0.106017,0.032435,0.182602,-0.704069,0.141334,0.671541,12.0,2.0,16.0,45DBP,33
2.19,0.08381,0.251641,0.244942,0.997318,0.064798,0.034008,0.085292,-0.015329,0.015736,0.181388,-0.704815,0.142267,0.670891,12.0,2.0,16.0,45DBP,33
2.2,0.372778,0.239428,0.233132,0.997383,0.06251,0.036314,0.085304,0.050344,-0.023512,0.18122,-0.705262,0.144092,0.670076,12.0,2.0,16.0,45DBP,33
2.21,0.56565,0.218993,0.23737,0.997444,0.060302,0.038323,0.076591,0.05008,-0.066277,0.181947,-0.705425,0.146756,0.669129,12.0,2.0,16.0,45DBP,33
2.22,0.569314,0.199803,0.221165,0.997498,0.058216,0.040093,0.076735,0.015407,-0.107064,0.183047,-0.705435,0.149692,0.668167,12.0,2.0,16.0,45DBP,33
2.23,0.47481,0.160317,0.194355,0.997546,0.056344,0.041566,0.071348,-0.039087,-0.115739,0.184064,-0.705389,0.152344,0.667336,12.0,2.0,16.0,45DBP,33
2.24,0.451548,0.135156,0.152476,0.997578,0.05477,0.042873,0.070735,-0.076727,-0.120891,0.184997,-0.705346,0.154671,0.666588,12.0,2.0,16.0,45DBP,33
2.25,0.365599,0.091565,0.123991,0.997601,0.053626,0.043782,0.070163,-0.046103,-0.07729,0.185894,-0.705245,0.156589,0.665997,12.0,2.0,16.0,45DBP,33
2.26,0.398599,0.05717,0.144864,0.997639,0.052466,0.044308,0.079997,0.015207,-0.051968,0.186713,-0.705034,0.15837,0.66557,12.0,2.0,16.0,45DBP,33
2.27,0.526399,0.030555,0.200932,0.997707,0.050984,0.0445,0.103763,0.062221,-0.053915,0.187715,-0.704618,0.160512,0.665216,12.0,2.0,16.0,45DBP,33
2.28,0.649122,0.025204,0.254359,0.997817,0.04897,0.044295,0.100815,0.066066,0.030321,0.18903,-0.703906,0.163289,0.664921,12.0,2.0,16.0,45DBP,33
2.29,0.779541,0.056801,0.265645,0.997921,0.046665,0.044442,0.07973,0.064099,0.070029,0.190646,-0.70317,0.166652,0.664404,12.0,2.0,16.0,45DBP,33
2.3,0.707976,0.08499,0.222545,0.998003,0.044547,0.04479,0.064467,0.055475,0.096888,0.192422,-0.702471,0.170088,0.663761,12.0,2.0,16.0,45DBP,33
2.31,0.584056,0.07411,0.190551,0.998056,0.04279,0.045308,0.067328,0.081035,0.058696,0.193939,-0.701937,0.173026,0.663124,12.0,2.0,16.0,45DBP,33
2.32,0.477098,0.095875,0.201631,0.998096,0.04111,0.045986,0.069607,0.097959,0.04108,0.195087,-0.701552,0.175552,0.662531,12.0,2.0,16.0,45DBP,33
2.33,0.35928,0.15511,0.231496,0.998133,0.039121,0.046898,0.040868,0.054156,0.10807,0.195722,-0.701311,0.177798,0.662,12.0,2.0,16.0,45DBP,33
2.34,0.380358,0.155173,0.18887,0.99813,0.037165,0.048526,0.061181,0.001058,0.059537,0.196148,-0.701346,0.179937,0.661259,12.0,2.0,16.0,45DBP,33
2.35,0.354487,0.177757,0.154448,0.998115,0.035667,0.049934,0.11628,-0.065879,0.081841,0.196736,-0.701344,0.181888,0.660551,12.0,2.0,16.0,45DBP,33
2.36,0.336176,0.140644,0.138285,0.998083,0.034411,0.051438,0.153559,-0.097476,0.147216,0.197347,-0.701404,0.183715,0.659799,12.0,2.0,16.0,45DBP,33
2.37,0.350921,0.123723,0.144526,0.998057,0.0332,0.05272,0.18015,-0.115368,0.107405,0.197931,-0.701407,0.18544,0.659138,12.0,2.0,16.0,45DBP,33
2.38,0.402146,0.050922,0.168588,0.998061,0.031835,0.053477,0.174256,-0.13944,0.135732,0.19867,-0.701173,0.187336,0.658629,12.0,2.0,16.0,45DBP,33
2.39,0.376458,0.048207,0.157447,0.998083,0.03042,0.053894,0.124292,-0.099924,0.09842,0.19946,-0.700807,0.189254,0.658232,12.0,2.0,16.0,45DBP,33
2.4,0.346224,0.017844,0.139033,0.998108,0.029136,0.054138,0.064926,-0.037605,0.079239,0.200207,-0.70042,0.190999,0.657912,12.0,2.0,16.0,45DBP,33
2.41,0.336425,0.034966,0.115938,0.998133,0.028049,0.054249,0.02242,0.014859,0.064815,0.200966,-0.700023,0.192593,0.657638,12.0,2.0,16.0,45DBP,33
2.42,0.391661,0.078801,0.098851,0.998131,0.02721,0.054709,-0.017785,0.049389,0.11979,0.201815,-0.69975,0.194179,0.657203,12.0,2.0,16.0,45DBP,33
2.43,0.468231,0.135115,0.040144,0.998086,0.026731,0.055764,-0.031793,0.07767,0.071434,0.202972,-0.699628,0.195964,0.656445,12.0,2.0,16.0,45DBP,33
2.44,0.51171,0.157682,0.001271,0.998008,0.026849,0.057084,-0.0111,0.11547,0.033904,0.204486,-0.699592,0.197769,0.655472,12.0,2.0,16.0,45DBP,33
2.45,0.565469,0.180129,0.002097,0.997908,0.027202,0.058648,0.018938,0.096577,-0.024423,0.206233,-0.699598,0.199715,0.654327,12.0,2.0,16.0,45DBP,33
2.46,0.455081,0.198688,-0.004805,0.997794,0.027565,0.060398,0.032373,0.051765,-0.06612,0.207901,-0.699678,0.201616,0.653129,12.0,2.0,16.0,45DBP,33
2.47,0.043926,0.201397,-0.046944,0.997661,0.02797,0.062371,0.03275,0.010573,-0.069986,0.208696,-0.700098,0.202605,0.65212,12.0,2.0,16.0,45DBP,33
2.48,-0.47223,0.176798,-0.130174,0.997513,0.028737,0.064353,0.031494,-0.026051,-0.093985,0.208061,-0.701035,0.201807,0.651563,12.0,2.0,16.0,45DBP,33
2.49,-0.905683,0.133675,-0.204684,0.997363,0.030018,0.066073,0.039914,-0.085667,-0.111865,0.206023,-0.702428,0.199075,0.65155,12.0,2.0,16.0,45DBP,33
2.5,-1.1182,0.111823,-0.201947,0.997217,0.031454,0.0676,0.054999,-0.122061,-0.090396,0.202992,-0.704082,0.195111,0.651916,12.0,2.0,16.0,45DBP,33
2.51,-1.159363,0.116006,-0.145543,0.997083,0.032422,0.069089,0.075991,-0.103726,-0.006726,0.199411,-0.705773,0.190863,0.65245,12.0,2.0,16.0,45DBP,33
2.52,-1.097491,0.112748,-0.139547,0.996955,0.033024,0.070636,0.071404,-0.014805,0.073346,0.195757,-0.707409,0.186791,0.652964,12.0,2.0,16.0,45DBP,33
2.53,-1.149756,0.136535,-0.179319,0.996811,0.033785,0.072292,0.041107,0.084791,0.09322,0.192172,-0.709063,0.182692,0.653394,12.0,2.0,16.0,45DBP,33
2.54,-1.180344,0.155472,-0.243146,0.996628,0.03506,0.074185,0.018677,0.128591,0.086306,0.18861,-0.710851,0.178281,0.653707,12.0,2.0,16.0,45DBP,33
2.55,-1.319118,0.127,-0.317371,0.996415,0.036949,0.076097,0.027953,0.127861,0.028273,0.184972,-0.712744,0.173334,0.654016,12.0,2.0,16.0,45DBP,33
2.56,-1.345285,0.064788,-0.326674,0.996211,0.039201,0.077632,0.06664,0.103225,-0.049129,0.181156,-0.714594,0.167842,0.654497,12.0,2.0,16.0,45DBP,33
2.57,-1.266968,0.000176,-0.283016,0.99606,0.041283,0.078485,0.10152,0.047477,-0.129739,0.177487,-0.716127,0.162493,0.655176,12.0,2.0,16.0,45DBP,33
2.58,-1.16781,-0.02314,-0.248608,0.995954,0.043038,0.078894,0.078494,-0.031014,-0.108954,0.17398,-0.717392,0.157468,0.655961,12.0,2.0,16.0,45DBP,33
2.59,-1.120998,-0.013128,-0.221927,0.995861,0.044542,0.07923,0.011036,-0.122316,-0.050086,0.170715,-0.718502,0.15287,0.65669,12.0,2.0,16.0,45DBP,33
2.6,-1.117723,0.010177,-0.224336,0.995755,0.045954,0.079745,-0.028074,-0.074732,-0.020449,0.167425,-0.719631,0.148336,0.65734,12.0,2.0,16.0,45DBP,33
2.61,-1.057022,0.045876,-0.221125,0.995624,0.047346,0.080567,-0.038242,-0.016462,-0.014253,0.164205,-0.720809,0.143937,0.65784,12.0,2.0,16.0,45DBP,33
2.62,-0.838781,0.043871,-0.215434,0.995473,0.048833,0.081543,-0.025548,0.045359,-0.071747,0.161453,-0.721922,0.139999,0.65815,12.0,2.0,16.0,45DBP,33
2.63,-0.56734,0.046029,-0.161124,0.995337,0.050193,0.082376,0.000132,0.073892,-0.093591,0.159522,-0.722781,0.137024,0.658305,12.0,2.0,16.0,45DBP,33
2.64,-0.303171,0.066894,-0.124334,0.995216,0.051275,0.083158,-0.002098,0.047633,-0.045103,0.158385,-0.723412,0.135109,0.658282,12.0,2.0,16.0,45DBP,33
2.65,-0.067899,0.078338,-0.096633,0.995095,0.052239,0.084009,-0.00013,0.023826,-0.013605,0.158043,-0.723882,0.134163,0.658041,12.0,2.0,16.0,45DBP,33
2.66,0.153373,0.080539,-0.059686,0.994982,0.053096,0.084796,0.004926,0.043171,-0.002689,0.158424,-0.724169,0.134079,0.65765,12.0,2.0,16.0,45DBP,33
2.67,0.436015,0.069326,0.010876,0.994901,0.053653,0.085402,-0.013791,0.051709,0.017473,0.159518,-0.724212,0.134974,0.657155,12.0,2.0,16.0,45DBP,33
2.68,0.726838,0.045903,0.077868,0.994873,0.053747,0.085662,-0.027039,0.037302,0.009079,0.161476,-0.723902,0.137104,0.656578,12.0,2.0,16.0,45DBP,33
2.69,0.962973,0.001366,0.126952,0.994903,0.0535,0.085468,-0.026932,0.034101,-0.043262,0.164207,-0.723229,0.140263,0.655974,12.0,2.0,16.0,45DBP,33
2.7,1.084396,-0.056346,0.162742,0.994998,0.052971,0.084689,-0.003406,0.025047,-0.12337,0.167498,-0.722195,0.144149,0.655439,12.0,2.0,16.0,45DBP,33
2.71,1.198455,-0.119877,0.22397,0.995169,0.052065,0.083238,0.021753,0.039976,-0.182191,0.171053,-0.720814,0.148479,0.655074,12.0,2.0,16.0,45DBP,33
2.72,1.345086,-0.181955,0.300218,0.995426,0.05052,0.08109,0.02969,-0.00456,-0.281956,0.174924,-0.719018,0.153486,0.654872,12.0,2.0,16.0,45DBP,33
2.73,1.245569,-0.270225,0.296004,0.995755,0.048573,0.078178,0.018527,-0.064152,-0.368294,0.178855,-0.716873,0.158691,0.654921,12.0,2.0,16.0,45DBP,33
2.74,0.858592,-0.373705,0.209523,0.996127,0.046879,0.074389,0.007139,-0.096714,-0.386858,0.182102,-0.714631,0.162777,0.655473,12.0,2.0,16.0,45DBP,33
2.75,0.565955,-0.39163,0.184268,0.9965,0.045502,0.070114,-0.007594,-0.16829,-0.246735,0.184289,-0.712538,0.165367,0.656491,12.0,2.0,16.0,45DBP,33
2.76,0.540406,-0.284565,0.176313,0.99682,0.044061,0.066401,-0.045007,-0.252741,-0.05424,0.185913,-0.710741,0.167474,0.657446,12.0,2.0,16.0,45DBP,33
2.77,0.483344,-0.108934,0.086804,0.997011,0.043044,0.064149,-0.059283,-0.153701,0.016814,0.187512,-0.709466,0.169508,0.657849,12.0,2.0,16.0,45DBP,33
2.78,0.446566,0.064855,-0.023847,0.997038,0.04304,0.063738,-0.017775,0.072988,0.099271,0.189022,-0.708947,0.171064,0.657572,12.0,2.0,16.0,45DBP,33
2.79,0.760051,0.167903,-0.057201,0.996939,0.043925,0.064671,0.028238,0.231191,0.30128,0.19119,-0.708819,0.172949,0.65659,12.0,2.0,16.0,45DBP,33
2.8,1.011427,0.221367,-0.016241,0.996794,0.044873,0.066233,0.061143,0.333713,0.412038,0.194321,-0.708629,0.175957,0.655075,12.0,2.0,16.0,45DBP,33
2.81,1.211899,0.186606,-0.020316,0.996646,0.045809,0.067816,0.087445,0.36749,0.344293,0.198122,-0.708244,0.179716,0.65333,12.0,2.0,16.0,45DBP,33
2.82,1.377976,0.11061,0.002957,0.996535,0.046892,0.068688,0.079636,0.248289,0.244147,0.202679,-0.707435,0.184065,0.651596,12.0,2.0,16.0,45DBP,33
2.83,1.268424,0.077041,0.020374,0.996476,0.047773,0.068944,0.028503,0.07535,0.158122,0.207334,-0.706344,0.188549,0.650031,12.0,2.0,16.0,45DBP,33
2.84,0.896244,0.056856,0.022792,0.996435,0.048416,0.069086,-0.020514,-0.067184,0.132696,0.211106,-0.705403,0.192223,0.648761,12.0,2.0,16.0,45DBP,33
2.85,0.431636,0.035604,0.016966,0.99641,0.048738,0.069225,-0.048,-0.165621,0.172001,0.21337,-0.704832,0.194486,0.647967,12.0,2.0,16.0,45DBP,33
2.86,0.026721,0.048603,-0.024272,0.996376,0.048965,0.069542,-0.061959,-0.170471,0.153907,0.214147,-0.704736,0.195239,0.647588,12.0,2.0,16.0,45DBP,33
2.87,-0.138822,0.032695,-0.02861,0.996324,0.049264,0.070076,-0.053179,-0.068353,0.085915,0.213939,-0.705015,0.194915,0.647451,12.0,2.0,16.0,45DBP,33
2.88,0.01419,0.003223,0.039596,0.99631,0.049207,0.070313,-0.015888,0.044726,0.084151,0.213637,-0.705165,0.194678,0.647458,12.0,2.0,16.0,45DBP,33
2.89,0.479109,-0.037274,0.147109,0.996364,0.048489,0.070044,0.004902,0.162678,0.069681,0.214179,-0.704781,0.195718,0.647384,12.0,2.0,16.0,45DBP,33
2.9,1.045339,0.042317,0.239493,0.996456,0.04712,0.069684,-0.005977,0.208343,0.136493,0.216264,-0.703768,0.198877,0.646829,12.0,2.0,16.0,45DBP,33
2.91,1.582822,0.172432,0.268002,0.996496,0.045532,0.070157,-0.051001,0.212311,0.096836,0.219953,-0.702435,0.204116,0.645401,12.0,2.0,16.0,45DBP,33
2.92,2.055897,0.33066,0.251524,0.996427,0.044221,0.071949,-0.115934,0.133757,0.224086,0.22529,-0.70096,0.211257,0.642861,12.0,2.0,16.0,45DBP,33
2.93,1.917656,0.462177,0.161259,0.996225,0.0437,0.075001,-0.122172,0.140779,0.328274,0.231351,-0.699686,0.218952,0.639513,12.0,2.0,16.0,45DBP,33
2.94,1.532526,0.375129,0.216991,0.995957,0.043275,0.078723,0.013504,0.116896,-0.022067,0.236271,-0.698924,0.225537,0.63625,12.0,2.0,16.0,45DBP,33
2.95,0.99981,0.189315,0.233875,0.995838,0.041993,0.080889,0.146099,-0.270738,-0.249667,0.239821,-0.697956,0.230872,0.634067,12.0,2.0,16.0,45DBP,33
2.96,-0.191518,0.196988,0.066787,0.995749,0.040824,0.082568,0.065607,-0.443412,-0.02904,0.240592,-0.697864,0.232958,0.633113,12.0,2.0,16.0,45DBP,33
2.97,-1.164318,0.174517,-0.164536,0.99556,0.040763,0.084848,0.005981,-0.374076,0.126151,0.23803,-0.699416,0.23074,0.633181,12.0,2.0,16.0,45DBP,33
2.98,-1.382866,0.10166,-0.27261,0.99534,0.041928,0.086834,0.046362,-0.184033,-0.025601,0.23396,-0.7017,0.225907,0.633913,12.0,2.0,16.0,45DBP,33
2.99,-1.045756,0.05978,-0.22728,0.995158,0.043455,0.088162,0.091085,0.067171,-0.207165,0.230329,-0.703693,0.221128,0.634718,12.0,2.0,16.0,45DBP,33
3.0,-0.517288,0.108609,-0.110584,0.995004,0.044462,0.08938,0.070333,0.170535,-0.188715,0.228056,-0.705044,0.218182,0.63506,12.0,2.0,16.0,45DBP,33
3.01,-0.299873,0.151417,-0.092662,0.99484,0.045073,0.090894,0.003344,0.110612,-0.084852,0.226838,-0.706021,0.216752,0.6349,12.0,2.0,16.0,45DBP,33
3.02,-0.348327,0.181028,-0.162044,0.994624,0.046087,0.092728,-0.01884,-0.00141,-0.021378,0.225997,-0.707045,0.215526,0.634477,12.0,2.0,16.0,45DBP,33
3.03,-0.641519,0.180758,-0.256953,0.994347,0.047769,0.094824,-0.013528,-0.049325,0.009165,0.224741,-0.708424,0.213418,0.634097,12.0,2.0,16.0,45DBP,33
3.04,-0.855713,0.134936,-0.276289,0.994055,0.049799,0.096821,0.022501,-0.050822,-0.07697,0.222759,-0.710085,0.210215,0.634009,12.0,2.0,16.0,45DBP,33
3.05,-0.911456,0.09211,-0.234033,0.993812,0.05152,0.098402,0.069847,-0.059485,-0.121138,0.220297,-0.711705,0.206586,0.634246,12.0,2.0,16.0,45DBP,33
3.06,-0.969971,0.04692,-0.227334,0.993619,0.052848,0.099644,0.065387,-0.059378,-0.073659,0.21757,-0.713213,0.202852,0.634698,12.0,2.0,16.0,45DBP,33
3.07,-0.93159,0.003275,-0.21695,0.993464,0.054198,0.100456,0.049047,-0.025633,-0.076378,0.214886,-0.714569,0.199045,0.635292,12.0,2.0,16.0,45DBP,33
3.08,-0.914025,-0.021465,-0.158474,0.993372,0.055141,0.100855,0.039786,0.001179,-0.053294,0.212182,-0.715711,0.195411,0.636043,12.0,2.0,16.0,45DBP,33
3.09,-0.952983,-0.037785,-0.150026,0.993315,0.055709,0.101106,0.018068,0.008973,-0.031847,0.20935,-0.716756,0.191869,0.636883,12.0,2.0,16.0,45DBP,33
3.1,-0.884999,-0.040916,-0.130248,0.993275,0.056202,0.101224,0.004955,0.017651,-0.004972,0.206501,-0.717735,0.188332,0.637766,12.0,2.0,16.0,45DBP,33
3.11,-0.800704,-0.042862,-0.093824,0.99325,0.056459,0.101326,-0.009607,0.034926,0.019294,0.203875,-0.718582,0.185213,0.63857,12.0,2.0,16.0,45DBP,33
3.12,-0.637919,-0.055509,-0.042193,0.993261,0.056434,0.101236,-0.007329,0.05378,-0.016183,0.201538,-0.719223,0.182582,0.639347,12.0,2.0,16.0,45DBP,33
3.13,-0.556388,-0.05725,-0.014792,0.993301,0.056126,0.101008,-0.013702,0.01202,-0.014323,0.199577,-0.719656,0.180554,0.640051,12.0,2.0,16.0,45DBP,33
3.14,-0.658434,-0.077249,-0.031984,0.993354,0.055747,0.100701,-0.018531,0.009057,-0.026955,0.197529,-0.72007,0.178465,0.640805,12.0,2.0,16.0,45DBP,33
3.15,-0.660099,-0.112766,-0.014829,0.993433,0.055361,0.100125,-0.005015,-0.029833,-0.095868,0.195301,-0.720446,0.176127,0.641712,12.0,2.0,16.0,45DBP,33
3.16,-0.593517,-0.14503,0.043294,0.993571,0.054581,0.099184,0.013509,-0.076981,-0.117266,0.193096,-0.720628,0.174034,0.642746,12.0,2.0,16.0,45DBP,33
3.17,-0.490148,-0.145313,0.054753,0.993739,0.053585,0.098033,0.01389,-0.077206,-0.123164,0.191113,-0.720642,0.172312,0.643785,12.0,2.0,16.0,45DBP,33
3.18,-0.385727,-0.119284,0.064035,0.993905,0.052578,0.096888,0.005194,-0.022366,-0.054102,0.189464,-0.720563,0.170977,0.644716,12.0,2.0,16.0,45DBP,33
3.19,-0.160383,-0.052392,0.048914,0.994024,0.051737,0.096118,-0.007254,0.050741,-0.006717,0.188317,-0.720489,0.170159,0.645351,12.0,2.0,16.0,45DBP,33
3.2,0.081096,-0.068553,0.050911,0.994109,0.051261,0.095498,-0.008162,0.114663,-0.044976,0.188157,-0.720263,0.170207,0.645638,12.0,2.0,16.0,45DBP,33
3.21,0.275352,-0.068186,0.052614,0.994204,0.050906,0.094693,0.011075,0.181104,-0.032681,0.188672,-0.719823,0.170885,0.645799,12.0,2.0,16.0,45DBP,33
3.22,0.542732,-0.063082,0.02817,0.994286,0.050885,0.093842,0.013572,0.172839,-0.088837,0.190059,-0.719194,0.172282,0.645722,12.0,2.0,16.0,45DBP,33
3.23,0.836813,-0.123365,0.014721,0.99438,0.051378,0.092566,0.033849,0.141447,-0.16709,0.19258,-0.718218,0.174486,0.645469,12.0,2.0,16.0,45DBP,33
3.24,1.024993,-0.147895,0.050317,0.994528,0.051944,0.090644,0.021265,0.102704,-0.046378,0.195973,-0.716816,0.177473,0.645192,12.0,2.0,16.0,45DBP,33
3.25,1.132204,-0.070929,0.050422,0.994657,0.052413,0.088939,-0.017744,0.041932,0.087498,0.199798,-0.715327,0.181042,0.644679,12.0,2.0,16.0,45DBP,33
3.26,1.202375,0.005079,0.032659,0.994706,0.053111,0.087969,-0.044328,-0.056209,0.25546,0.203908,-0.714,0.184903,0.643768,12.0,2.0,16.0,45DBP,33
3.27,1.206212,0.065658,0.075729,0.994703,0.053659,0.087673,-0.056883,-0.181344,0.344364,0.208047,-0.712812,0.18904,0.642557,12.0,2.0,16.0,45DBP,33
3.28,0.995184,0.060531,0.080358,0.994684,0.053866,0.08776,-0.064554,-0.201571,0.240807,0.211709,-0.711788,0.192973,0.641326,12.0,2.0,16.0,45DBP,33
3.29,0.605355,0.041733,0.070596,0.994679,0.053867,0.087817,-0.055485,-0.123965,0.130796,0.214297,-0.711019,0.195858,0.640444,12.0,2.0,16.0,45DBP,33
3.3,0.344493,0.087467,0.068468,0.994659,0.053608,0.088195,-0.052475,-0.031422,0.126633,0.215645,-0.710664,0.197622,0.639843,12.0,2.0,16.0,45DBP,33
3.31,0.193783,0.186804,0.028227,0.994559,0.053363,0.089464,-0.044837,0.085446,0.101454,0.216316,-0.710776,0.198821,0.639121,12.0,2.0,16.0,45DBP,33
3.32,0.063794,0.156665,0.021779,0.994406,0.0533,0.091191,0.001352,0.226424,-0.023,0.216504,-0.711205,0.199456,0.638381,12.0,2.0,16.0,45DBP,33
3.33,0.162021,0.102741,0.051799,0.994303,0.053052,0.092442,0.050466,0.176975,-0.022404,0.216639,-0.711475,0.20006,0.637845,12.0,2.0,16.0,45DBP,33
3.34,0.205405,0.068394,0.10193,0.994256,0.052528,0.093253,0.064475,0.063316,0.024621,0.217026,-0.711482,0.201046,0.637395,12.0,2.0,16.0,45DBP,33
3.35,0.025585,0.059319,0.160179,0.994262,0.051358,0.093836,0.062134,0.000583,-0.003702,0.216985,-0.711426,0.201968,0.637181,12.0,2.0,16.0,45DBP,33
3.36,-0.054848,0.029231,0.14585,0.994299,0.049804,0.094286,0.042704,-0.065246,-0.022952,0.21636,-0.711438,0.202481,0.637217,12.0,2.0,16.0,45DBP,33
3.37,-0.107524,0.054445,0.071147,0.99431,0.048672,0.094757,0.005583,-0.081844,-0.030243,0.215703,-0.711552,0.202663,0.637255,12.0,2.0,16.0,45DBP,33
3.38,-0.150618,0.078399,0.051627,0.99427,0.047994,0.095512,-0.009957,-0.038961,-0.048561,0.214972,-0.711864,0.2025,0.637205,12.0,2.0,16.0,45DBP,33
3.39,-0.111999,0.076666,0.049172,0.994212,0.047392,0.096414,0.008122,-0.011961,-0.054101,0.214264,-0.712226,0.20234,0.63709,12.0,2.0,16.0,45DBP,33
3.4,-0.109693,0.08023,0.013003,0.994148,0.047017,0.097258,0.023186,0.02621,-0.055282,0.213711,-0.712568,0.202177,0.636944,12.0,2.0,16.0,45DBP,33
3.41,-0.0593,0.05922,0.021236,0.994081,0.046812,0.098034,0.031248,0.020601,-0.043529,0.213291,-0.712883,0.202025,0.636781,12.0,2.0,16.0,45DBP,33
3.42,-0.088241,0.020372,0.026236,0.994053,0.046536,0.098449,0.044307,-0.016583,-0.041137,0.212949,-0.713055,0.201932,0.636732,12.0,2.0,16.0,45DBP,33
3.43,-0.183758,0.013378,0.015892,0.994047,0.04619,0.098679,0.026263,-0.052339,-0.007355,0.212385,-0.71323,0.201599,0.63683,12.0,2.0,16.0,45DBP,33
3.44,-0.310304,0.017482,-0.004583,0.994038,0.045798,0.098944,0.007915,-0.064795,0.003076,0.211444,-0.713525,0.200884,0.637039,12.0,2.0,16.0,45DBP,33
3.45,-0.45261,0.004463,-0.015434,0.99403,0.045442,0.099193,0.00217,-0.039567,0.013921,0.21007,-0.713956,0.199656,0.637396,12.0,2.0,16.0,45DBP,33
3.46,-0.495078,-0.008819,-0.016175,0.994033,0.045095,0.099318,0.001664,-0.006795,0.015428,0.208395,-0.714446,0.198056,0.637897,12.0,2.0,16.0,45DBP,33
3.47,-0.434553,-0.026069,0.004468,0.994056,0.044693,0.09927,0.002236,0.023804,0.025501,0.20677,-0.714854,0.196516,0.638444,12.0,2.0,16.0,45DBP,33
3.48,-0.353443,-0.03088,0.031812,0.994104,0.044182,0.099023,5.2e-05,0.05532,0.029974,0.205371,-0.715111,0.195263,0.638992,12.0,2.0,16.0,45DBP,33
3.49,-0.296417,-0.062545,0.020751,0.99418,0.043666,0.098486,-0.013101,0.070424,0.010446,0.204201,-0.71521,0.194212,0.639577,12.0,2.0,16.0,45DBP,33
3.5,-0.167979,-0.115502,0.033362,0.994308,0.043106,0.09743,-0.013504,0.043487,0.004514,0.203381,-0.71504,0.193475,0.640251,12.0,2.0,16.0,45DBP,33
3.51,-0.1933,-0.127586,0.061484,0.994468,0.042162,0.096206,-0.008506,0.009703,0.074845,0.202642,-0.714721,0.193071,0.640963,12.0,2.0,16.0,45DBP,33
3.52,-0.263181,-0.089722,0.069548,0.994615,0.041007,0.095181,-0.025438,-0.003822,0.13959,0.201625,-0.714503,0.192553,0.641683,12.0,2.0,16.0,45DBP,33
3.53,-0.396441,-0.016802,0.048145,0.994686,0.04,0.094871,-0.04684,-0.0111,0.180535,0.200257,-0.714626,0.191689,0.642232,12.0,2.0,16.0,45DBP,33
3.54,-0.403362,-0.038626,0.047655,0.994722,0.039189,0.094829,-0.049119,0.003628,0.099125,0.198662,-0.714933,0.190489,0.642743,12.0,2.0,16.0,45DBP,33
3.55,-0.144417,-0.059265,0.039491,0.994783,0.038547,0.094451,-0.024812,0.020367,0.000535,0.197555,-0.715026,0.189641,0.643231,12.0,2.0,16.0,45DBP,33
3.56,0.23739,0.022283,0.046201,0.994817,0.038222,0.094219,-0.025442,0.063707,-0.010921,0.197615,-0.714877,0.189894,0.643303,12.0,2.0,16.0,45DBP,33
3.57,0.320424,0.123814,0.066408,0.994765,0.037959,0.094876,-0.03015,0.051747,0.138904,0.198472,-0.714767,0.191171,0.642784,12.0,2.0,16.0,45DBP,33
3.58,0.014124,0.111957,-0.004306,0.994649,0.037823,0.096142,-0.011037,0.000858,0.178989,0.198911,-0.714982,0.19202,0.642155,12.0,2.0,16.0,45DBP,33
3.59,-0.20869,-0.044097,-0.002513,0.994603,0.037865,0.096592,0.045802,-0.068108,-0.085987,0.198493,-0.715247,0.191617,0.642109,12.0,2.0,16.0,45DBP,33
3.6,-0.235807,-0.120452,0.029503,0.994698,0.037454,0.095776,0.071098,-0.150217,-0.273389,0.197717,-0.715159,0.19088,0.642666,12.0,2.0,16.0,45DBP,33
3.61,-0.364477,-0.016053,-0.080394,0.994755,0.037393,0.095208,-0.010502,-0.07139,-0.093393,0.196783,-0.715257,0.189768,0.643174,12.0,2.0,16.0,45DBP,33
3.62,-0.379438,0.062827,-0.18376,0.994668,0.038431,0.095702,-0.040978,0.039175,0.065308,0.19584,-0.715877,0.188073,0.643269,12.0,2.0,16.0,45DBP,33
3.63,-0.29504,0.05668,-0.18056,0.994529,0.039996,0.096496,0.027092,0.115171,0.01059,0.195147,-0.716608,0.186336,0.643171,12.0,2.0,16.0,45DBP,33
3.64,-0.033131,0.049074,-0.145082,0.994418,0.041464,0.097027,0.108289,0.139246,-0.155911,0.195007,-0.71708,0.185229,0.643008,12.0,2.0,16.0,45DBP,33
3.65,0.159829,0.030052,-0.097302,0.994324,0.042822,0.097397,0.105911,0.030085,-0.237046,0.195673,-0.717251,0.185068,0.642661,12.0,2.0,16.0,45DBP,33
3.66,-0.027878,0.045197,-0.07963,0.994256,0.043704,0.097697,0.073356,-0.117556,-0.134623,0.196196,-0.717353,0.185076,0.642385,12.0,2.0,16.0,45DBP,33
3.67,-0.280493,0.071523,-0.190843,0.994132,0.044882,0.098419,0.012902,-0.125998,0.006607,0.195981,-0.717848,0.184131,0.642169,12.0,2.0,16.0,45DBP,33
3.68,-0.261209,0.058085,-0.248842,0.99396,0.046894,0.099224,0.025984,-0.016315,-0.076672,0.195648,-0.718553,0.182467,0.641958,12.0,2.0,16.0,45DBP,33
3.69,-0.20394,0.059085,-0.181604,0.993798,0.048809,0.09991,0.06687,0.091495,-0.057094,0.19545,-0.719163,0.180998,0.641751,12.0,2.0,16.0,45DBP,33
3.7,-0.146766,0.051323,-0.161501,0.993655,0.050324,0.100581,0.055096,0.064605,-0.010829,0.195323,-0.719673,0.179893,0.641528,12.0,2.0,16.0,45DBP,33
3.71,-0.213086,0.031589,-0.161004,0.993532,0.051754,0.101072,0.043181,-0.013546,-0.025511,0.195199,-0.720112,0.178816,0.641374,12.0,2.0,16.0,45DBP,33
3.72,-0.372612,-0.009738,-0.15783,0.993434,0.053071,0.101354,0.013951,-0.047318,-0.054541,0.19464,-0.720587,0.177289,0.641434,12.0,2.0,16.0,45DBP,33
3.73,-0.430802,-0.052173,-0.134819,0.993383,0.054143,0.101284,-0.003088,-0.076879,-0.110028,0.193697,-0.721016,0.175438,0.641747,12.0,2.0,16.0,45DBP,33
3.74,-0.466919,-0.10169,-0.081386,0.993401,0.054801,0.100756,-0.021324,-0.07949,-0.102084,0.192477,-0.721305,0.173487,0.642319,12.0,2.0,16.0,45DBP,33
3.75,-0.411762,-0.108514,-0.042354,0.993471,0.055023,0.099937,-0.037981,-0.097397,-0.130593,0.191207,-0.721439,0.171742,0.643017,12.0,2.0,16.0,45DBP,33
3.76,-0.485977,-0.117072,0.005536,0.993575,0.054764,0.099044,-0.037291,-0.093948,-0.108276,0.189746,-0.721513,0.17012,0.643797,12.0,2.0,16.0,45DBP,33
3.77,-0.529718,-0.175103,0.008287,0.993719,0.05422,0.097891,-0.029486,-0.080618,-0.149801,0.188096,-0.721506,0.168447,0.644728,12.0,2.0,16.0,45DBP,33
3.78,-0.687661,-0.194452,-0.006338,0.993901,0.053605,0.096365,-0.014516,-0.019456,-0.071219,0.186001,-0.721484,0.166264,0.645926,12.0,2.0,16.0,45DBP,33
3.79,-0.634473,-0.181613,0.022328,0.994084,0.052929,0.094845,-0.015217,0.012577,-0.024411,0.183727,-0.72149,0.163934,0.647164,12.0,2.0,16.0,45DBP,33
3.8,-0.465848,-0.187453,0.043229,0.994275,0.052073,0.093301,-0.003522,-0.014064,-0.002267,0.181743,-0.721378,0.162063,0.64832,12.0,2.0,16.0,45DBP,33
3.81,-0.184704,-0.140131,0.051133,0.994459,0.051308,0.091751,-0.011335,0.010337,0.069138,0.180545,-0.721077,0.161005,0.649252,12.0,2.0,16.0,45DBP,33
3.82,0.058809,0.002973,0.066334,0.994558,0.050655,0.091045,-0.04598,0.054738,0.177144,0.180219,-0.720836,0.160989,0.649614,12.0,2.0,16.0,45DBP,33
3.83,0.089087,0.103996,0.014935,0.994525,0.0503,0.091597,-0.060382,0.095452,0.229067,0.180339,-0.720918,0.16148,0.649368,12.0,2.0,16.0,45DBP,33
3.84,0.076641,0.124972,-0.018421,0.994413,0.050444,0.092726,-0.045164,0.118425,0.200074,0.180528,-0.72124,0.161789,0.648881,12.0,2.0,16.0,45DBP,33
3.85,0.252066,0.121546,0.048195,0.994298,0.050501,0.093923,-0.021382,0.070669,0.126841,0.180968,-0.721505,0.162455,0.648297,12.0,2.0,16.0,45DBP,33
3.86,0.378154,0.091488,0.092608,0.994235,0.050072,0.09481,0.003018,0.047951,0.093209,0.181824,-0.72149,0.163882,0.647715,12.0,2.0,16.0,45DBP,33
3.87,0.401416,0.0876,0.088927,0.994198,0.049551,0.095474,0.014133,0.065058,0.112549,0.182877,-0.721338,0.165555,0.647162,12.0,2.0,16.0,45DBP,33
3.88,0.431999,0.097915,0.102877,0.994154,0.049023,0.096195,9.3e-05,0.042499,0.121212,0.18399,-0.721182,0.167312,0.646568,12.0,2.0,16.0,45DBP,33
3.89,0.453088,0.106834,0.115654,0.994107,0.048365,0.09701,-0.020627,0.02326,0.090551,0.185162,-0.721013,0.16925,0.645918,12.0,2.0,16.0,45DBP,33
3.9,0.386615,0.115982,0.098342,0.994047,0.047709,0.097947,-0.034422,0.040045,0.05014,0.186242,-0.720899,0.171109,0.645245,12.0,2.0,16.0,45DBP,33
3.91,0.346166,0.117615,0.087151,0.993973,0.047169,0.098952,-0.028947,0.037228,0.002763,0.187153,-0.720865,0.172711,0.644591,12.0,2.0,16.0,45DBP,33
3.92,0.343029,0.095516,0.092418,0.993904,0.046652,0.099891,-0.001732,-0.008108,-0.030051,0.18803,-0.720821,0.174248,0.643971,12.0,2.0,16.0,45DBP,33
3.93,0.332667,0.066767,0.084497,0.993861,0.046119,0.100557,0.026661,-0.037895,-0.074709,0.18889,-0.720694,0.175725,0.643461,12.0,2.0,16.0,45DBP,33
3.94,0.337444,0.04795,0.059505,0.993835,0.045768,0.100978,0.043411,-0.021994,-0.090709,0.189829,-0.720499,0.177114,0.643021,12.0,2.0,16.0,45DBP,33
3.95,0.253803,0.028376,0.065001,0.993824,0.045472,0.101219,0.054836,0.007934,-0.049157,0.190693,-0.72028,0.178344,0.642671,12.0,2.0,16.0,45DBP,33
3.96,0.194771,0.027601,0.059089,0.993823,0.04507,0.101408,0.046063,0.002156,-0.005751,0.191259,-0.720106,0.179307,0.64243,12.0,2.0,16.0,45DBP,33
3.97,0.139042,0.032134,0.023636,0.993812,0.044826,0.101627,0.021233,-0.030437,0.008847,0.191705,-0.720003,0.180027,0.642212,12.0,2.0,16.0,45DBP,33
3.98,0.009735,0.054847,-0.011254,0.993769,0.044889,0.102016,0.002019,-0.031935,0.018543,0.191936,-0.720065,0.180317,0.641991,12.0,2.0,16.0,45DBP,33
3.99,-0.040268,0.0556,-0.011278,0.993702,0.044992,0.102629,-0.003589,-0.025308,0.003328,0.19184,-0.720293,0.180256,0.641781,12.0,2.0,16.0,45DBP,33
4.0,-0.054232,0.036402,-0.008293,0.993649,0.045053,0.103109,0.0125,-0.009408,-0.005224,0.191674,-0.720494,0.180121,0.641643,12.0,2.0,16.0,45DBP,33
4.01,-0.047411,0.048214,-0.01733,0.993602,0.045139,0.103527,0.018849,0.021572,-2.7e-05,0.191487,-0.720686,0.179931,0.641537,12.0,2.0,16.0,45DBP,33
4.02,-0.021157,0.044025,-0.00397,0.993543,0.045239,0.104047,0.012744,0.043766,0.006335,0.191358,-0.720895,0.179817,0.641372,12.0,2.0,16.0,45DBP,33
4.03,0.036688,0.051341,0.01108,0.993516,0.045208,0.10432,0.005004,0.036915,0.002446,0.191337,-0.720976,0.17987,0.641272,12.0,2.0,16.0,45DBP,33
4.04,0.070529,0.047652,0.003618,0.993475,0.045192,0.104716,-0.00466,0.016072,-7.1e-05,0.191492,-0.721048,0.180134,0.641072,12.0,2.0,16.0,45DBP,33
4.05,0.063941,0.057416,0.008381,0.99343,0.044945,0.105241,-0.010948,-0.001732,0.003493,0.191565,-0.721138,0.180499,0.640845,12.0,2.0,16.0,45DBP,33
4.06,0.051075,0.044863,0.01694,0.993383,0.044561,0.105853,-0.007802,-0.022283,0.001675,0.19157,-0.721249,0.180906,0.640605,12.0,2.0,16.0,45DBP,33
4.07,0.009313,0.046412,-0.002604,0.993352,0.04426,0.106268,-0.008229,-0.024454,-0.006537,0.191515,-0.721332,0.181145,0.640459,12.0,2.0,16.0,45DBP,33
4.08,0.036798,0.042788,-0.002249,0.993314,0.044246,0.106628,-0.005567,-0.022761,-0.023346,0.191547,-0.721428,0.181263,0.640309,12.0,2.0,16.0,45DBP,33
4.09,-0.036001,0.046863,-0.011366,0.993252,0.044626,0.107045,-0.00198,-0.018503,-0.027333,0.19166,-0.721588,0.181198,0.640112,12.0,2.0,16.0,45DBP,33
4.1,-0.123505,0.061342,-0.04425,0.993147,0.045567,0.107622,-0.003157,-0.019124,0.000197,0.191667,-0.721929,0.180636,0.639885,12.0,2.0,16.0,45DBP,33
4.11,-0.138494,0.07421,-0.076903,0.99302,0.046665,0.108318,-0.001993,-0.024906,-0.001018,0.191568,-0.722363,0.179865,0.639643,12.0,2.0,16.0,45DBP,33
4.12,-0.138494,0.07421,-0.076903,0.99302,0.046665,0.108318,-0.001993,-0.024906,-0.001018,0.191568,-0.722363,0.179865,0.639643,12.0,2.0,16.0,45DBP,33
4.13,-0.189904,0.056751,-0.077585,0.992906,0.047508,0.108996,0.004606,-0.01107,-0.006762,0.191245,-0.722807,0.17902,0.639474,12.0,2.0,16.0,45DBP,33
4.14,-0.049689,0.057467,-0.041001,0.992817,0.047889,0.109636,0.002819,-0.013022,-0.019121,0.190913,-0.723158,0.178495,0.639323,12.0,2.0,16.0,45DBP,33
4.15,-0.001958,0.037949,-0.017555,0.992778,0.047656,0.110091,-0.003505,-0.02283,0.005402,0.190742,-0.723299,0.178561,0.639196,12.0,2.0,16.0,45DBP,33
4.16,-0.183301,0.046371,-0.019112,0.992771,0.047172,0.11036,-0.009617,0.010674,0.002265,0.190262,-0.723426,0.178423,0.639234,12.0,2.0,16.0,45DBP,33
4.17,-0.320034,0.055688,-0.06738,0.992782,0.046775,0.110437,-0.008331,0.011254,-0.025537,0.189298,-0.723646,0.177637,0.63949,12.0,2.0,16.0,45DBP,33
4.18,-0.341583,0.057146,-0.097243,0.992762,0.046868,0.110574,-0.00352,-0.021767,-0.05781,0.188216,-0.724003,0.176373,0.639756,12.0,2.0,16.0,45DBP,33
4.19,-0.322214,0.023734,-0.086577,0.992701,0.04699,0.11107,0.015493,-0.048363,-0.050615,0.187144,-0.724467,0.175166,0.639876,12.0,2.0,16.0,45DBP,33
4.2,-0.434866,-0.008195,-0.093658,0.992688,0.046902,0.11122,0.030474,-0.021832,-0.019011,0.185886,-0.724839,0.173835,0.640185,12.0,2.0,16.0,45DBP,33
4.21,-0.489479,0.012931,-0.115368,0.992668,0.04719,0.111277,0.023048,0.027898,-0.015254,0.184443,-0.725296,0.172001,0.640579,12.0,2.0,16.0,45DBP,33
4.22,-0.307765,0.010349,-0.101716,0.992662,0.047561,0.111174,0.006331,0.020554,-0.011732,0.183239,-0.72565,0.170347,0.640965,12.0,2.0,16.0,45DBP,33
4.23,-0.24667,-0.017724,-0.073156,0.992639,0.047639,0.11135,-0.003015,-0.006273,0.011468,0.182392,-0.725941,0.169365,0.641138,12.0,2.0,16.0,45DBP,33
4.24,-0.331129,-0.052377,-0.066646,0.992636,0.048163,0.111146,-0.009879,-0.007499,0.036528,0.181638,-0.726167,0.168089,0.641432,12.0,2.0,16.0,45DBP,33
4.25,-0.107029,-0.067783,-0.103901,0.992686,0.048794,0.110421,-0.019725,-0.037014,0.063544,0.181057,-0.726207,0.166835,0.641878,12.0,2.0,16.0,45DBP,33
4.26,-0.543563,-0.046167,-0.075422,0.992702,0.04925,0.110079,-0.0312,-0.045984,0.102491,0.180241,-0.726391,0.165515,0.642241,12.0,2.0,16.0,45DBP,33
4.27,-0.704477,-0.124422,-0.064878,0.992775,0.049235,0.109427,-0.010231,-0.042857,0.164331,0.178231,-0.726706,0.163133,0.643055,12.0,2.0,16.0,45DBP,33
4.28,-0.651448,-0.115479,-0.072113,0.992865,0.049187,0.108623,-0.008261,-0.055871,0.023258,0.176067,-0.726998,0.160579,0.643963,12.0,2.0,16.0,45DBP,33
4.29,-0.629352,-0.154204,-0.084724,0.992966,0.04929,0.107653,-0.005768,-0.011174,-0.00664,0.174107,-0.727204,0.158118,0.644872,12.0,2.0,16.0,45DBP,33
4.3,-0.582715,-0.137029,-0.082637,0.993085,0.049488,0.106459,0.003299,0.067928,-0.010527,0.172284,-0.727313,0.155708,0.645824,12.0,2.0,16.0,45DBP,33
4.31,-0.524332,-0.157267,-0.063181,0.993193,0.049635,0.105375,0.026033,0.126848,-0.066923,0.1706,-0.727406,0.153518,0.64669,12.0,2.0,16.0,45DBP,33
4.32,-0.373049,-0.232892,-0.034691,0.993376,0.04967,0.103619,0.052202,0.102766,-0.030987,0.169276,-0.727184,0.151702,0.647716,12.0,2.0,16.0,45DBP,33
4.33,-0.249456,-0.233948,-0.005295,0.993608,0.049576,0.101417,0.051253,0.034195,0.000115,0.168414,-0.726691,0.150429,0.64879,12.0,2.0,16.0,45DBP,33
4.34,-0.297166,-0.203866,0.019717,0.993828,0.04926,0.099391,0.02848,0.002666,0.031331,0.16761,-0.726202,0.149419,0.649778,12.0,2.0,16.0,45DBP,33
4.35,-0.375266,-0.16678,0.034891,0.994023,0.048651,0.097727,0.005885,0.007699,0.040441,0.166414,-0.725869,0.148248,0.650725,12.0,2.0,16.0,45DBP,33
4.36,-0.323333,-0.140242,0.037274,0.994188,0.047944,0.096396,-0.008836,0.01715,0.022592,0.165114,-0.725645,0.147095,0.651567,12.0,2.0,16.0,45DBP,33
4.37,-0.263576,-0.121087,0.042382,0.994333,0.047286,0.095215,-0.011255,0.030671,0.031158,0.164049,-0.72542,0.146195,0.652288,12.0,2.0,16.0,45DBP,33
4.38,-0.300079,-0.096781,0.065038,0.99446,0.046485,0.09428,-0.000502,0.040429,0.035618,0.162916,-0.725264,0.145367,0.65293,12.0,2.0,16.0,45DBP,33
4.39,-0.348078,-0.08266,0.06326,0.994572,0.045547,0.093544,0.022303,0.04274,0.024742,0.161621,-0.725185,0.144494,0.653534,12.0,2.0,16.0,45DBP,33
4.4,-0.426376,-0.077595,0.038443,0.994663,0.044711,0.092982,0.043194,0.059552,0.00707,0.160068,-0.72523,0.143291,0.654131,12.0,2.0,16.0,45DBP,33
4.41,-0.35111,-0.094456,0.023824,0.994759,0.044019,0.092288,0.047065,0.025606,-0.003101,0.158617,-0.72523,0.142076,0.654749,12.0,2.0,16.0,45DBP,33
4.42,-0.190204,-0.065044,-0.024638,0.99483,0.043786,0.091623,0.044201,0.011115,-0.070154,0.157664,-0.725194,0.141086,0.655233,12.0,2.0,16.0,45DBP,33
4.43,-0.032957,-0.092475,-0.048526,0.994886,0.04409,0.090876,0.042742,0.006615,-0.004664,0.15749,-0.72504,0.140555,0.65556,12.0,2.0,16.0,45DBP,33
4.44,-0.0174,-0.095507,-0.044979,0.994946,0.044565,0.089982,0.018467,-0.002344,0.061401,0.157632,-0.724795,0.140224,0.655867,12.0,2.0,16.0,45DBP,33
4.45,0.030126,-0.095184,-0.03168,0.995019,0.044942,0.088975,-0.019861,-0.041676,0.053282,0.157823,-0.724491,0.140003,0.656204,12.0,2.0,16.0,45DBP,33
4.46,0.063113,-0.075943,-0.025751,0.995079,0.045287,0.088126,-0.048165,-0.057143,0.032738,0.158163,-0.7242,0.139993,0.656446,12.0,2.0,16.0,45DBP,33
4.47,0.061,-0.077626,0.037417,0.995145,0.045332,0.08735,-0.047209,-0.009261,0.051337,0.158428,-0.723905,0.14013,0.656677,12.0,2.0,16.0,45DBP,33
4.48,-0.043877,-0.054625,0.097527,0.995236,0.044666,0.086654,-0.01402,0.064785,0.032624,0.158308,-0.723617,0.140374,0.656971,12.0,2.0,16.0,45DBP,33
4.49,-0.062964,-0.009454,0.16839,0.995316,0.043401,0.086381,0.054565,0.153529,0.014571,0.157703,-0.723482,0.140584,0.657221,12.0,2.0,16.0,45DBP,33
4.5,0.034972,-0.056702,0.306877,0.99545,0.041076,0.085973,0.134203,0.182114,0.012111,0.156896,-0.723197,0.141322,0.657569,12.0,2.0,16.0,45DBP,33
4.51,0.166138,-0.155325,0.468081,0.995694,0.037318,0.084852,0.172244,0.165028,0.017031,0.156052,-0.72249,0.142946,0.658196,12.0,2.0,16.0,45DBP,33
4.52,0.28001,-0.165449,0.575474,0.996008,0.032258,0.083232,0.153574,0.131942,-0.002864,0.155284,-0.721416,0.145518,0.658992,12.0,2.0,16.0,45DBP,33
4.53,0.152261,-0.068419,0.56003,0.996277,0.02674,0.081962,0.098816,0.1336,0.020729,0.154261,-0.720431,0.148192,0.659714,12.0,2.0,16.0,45DBP,33
4.54,0.17053,0.061805,0.497102,0.996407,0.021585,0.081901,0.062767,0.089453,0.082833,0.153083,-0.719905,0.150622,0.660011,12.0,2.0,16.0,45DBP,33
4.55,0.242839,0.185579,0.392237,0.996389,0.017304,0.083121,0.088556,0.030197,0.076074,0.152248,-0.719827,0.153,0.659742,12.0,2.0,16.0,45DBP,33
4.56,0.22185,0.243816,0.263363,0.996253,0.01425,0.085307,0.188775,0.015565,0.058522,0.151885,-0.720124,0.155162,0.658997,12.0,2.0,16.0,45DBP,33
4.57,0.039607,0.138546,0.182331,0.996109,0.012166,0.087282,0.305465,0.025859,0.099028,0.151475,-0.720511,0.15654,0.658342,12.0,2.0,16.0,45DBP,33
4.58,-0.001712,-0.014205,0.154321,0.996074,0.010501,0.087892,0.365559,-0.016437,0.067229,0.150878,-0.720581,0.157189,0.658248,12.0,2.0,16.0,45DBP,33
4.59,-0.004553,-0.09156,0.055232,0.996136,0.009403,0.087317,0.336475,-0.057636,0.065363,0.150599,-0.720295,0.157584,0.65853,12.0,2.0,16.0,45DBP,33
4.6,-0.200804,-0.065282,-0.072653,0.996212,0.009398,0.086442,0.275241,-0.026183,0.062941,0.150344,-0.720083,0.157167,0.65892,12.0,2.0,16.0,45DBP,33
4.61,-0.305102,-0.053873,-0.236133,0.996251,0.010704,0.085849,0.233501,-0.023201,0.063885,0.149996,-0.720185,0.155748,0.659224,12.0,2.0,16.0,45DBP,33
4.62,-0.466861,0.009326,-0.359517,0.996231,0.013398,0.0857,0.23938,-0.000382,-0.052878,0.149589,-0.720652,0.153331,0.659373,12.0,2.0,16.0,45DBP,33
4.63,-0.398364,-0.02205,-0.39841,0.996178,0.016833,0.085709,0.253837,0.007139,-0.100373,0.149254,-0.721256,0.150481,0.659446,12.0,2.0,16.0,45DBP,33
4.64,-0.290323,-0.061121,-0.435027,0.996134,0.020702,0.085376,0.237814,-0.008937,-0.087253,0.149445,-0.721687,0.147835,0.659529,12.0,2.0,16.0,45DBP,33
4.65,-0.356737,-0.084638,-0.50641,0.996095,0.025125,0.084635,0.200499,0.005377,-0.054331,0.1499,-0.722003,0.145012,0.659706,12.0,2.0,16.0,45DBP,33
4.66,-0.442333,-0.065375,-0.578324,0.996006,0.030202,0.084027,0.173565,0.029216,-0.057462,0.150297,-0.722456,0.141672,0.659846,12.0,2.0,16.0,45DBP,33
4.67,-0.396314,-0.069097,-0.618388,0.995864,0.035829,0.083497,0.167695,0.018294,-0.064484,0.150759,-0.72298,0.138014,0.659942,12.0,2.0,16.0,45DBP,33
4.68,-0.325846,-0.123827,-0.666705,0.99569,0.04193,0.082722,0.17501,-0.007415,-0.069004,0.151664,-0.723382,0.134458,0.660028,12.0,2.0,16.0,45DBP,33
4.69,-0.3923,-0.167341,-0.73099,0.995497,0.048609,0.081382,0.185182,0.015188,-0.078483,0.152782,-0.723621,0.130629,0.660278,12.0,2.0,16.0,45DBP,33
4.7,-0.434987,-0.175859,-0.77911,0.995243,0.05582,0.079847,0.186306,0.032452,-0.065641,0.153868,-0.72385,0.126349,0.660606,12.0,2.0,16.0,45DBP,33
4.71,-0.280679,-0.200965,-0.798904,0.994918,0.063406,0.078209,0.161759,-0.016805,-0.037438,0.155267,-0.72401,0.122124,0.660899,12.0,2.0,16.0,45DBP,33
4.72,-0.299205,-0.173549,-0.854681,0.994513,0.071407,0.076446,0.122079,-0.043392,-0.093521,0.157125,-0.724072,0.118081,0.661127,12.0,2.0,16.0,45DBP,33
4.73,-0.281009,-0.129615,-0.935535,0.993951,0.080045,0.07519,0.094229,-0.000639,-0.066767,0.159055,-0.724336,0.113722,0.66114,12.0,2.0,16.0,45DBP,33
4.74,-0.269827,-0.090021,-1.040705,0.993193,0.089719,0.074279,0.094865,0.009493,-0.046173,0.161428,-0.724726,0.10914,0.660909,12.0,2.0,16.0,45DBP,33
4.75,-0.197927,-0.108551,-1.106244,0.99224,0.1002,0.07362,0.12687,-0.005611,-0.045635,0.164138,-0.725202,0.104366,0.660491,12.0,2.0,16.0,45DBP,33
4.76,-0.236449,-0.181821,-1.200703,0.991124,0.111525,0.07236,0.156307,-0.025999,0.02937,0.1673,-0.725468,0.099381,0.660175,12.0,2.0,16.0,45DBP,33
4.77,-0.316723,-0.167536,-1.254494,0.989803,0.123536,0.070919,0.189183,0.005843,-0.021953,0.170416,-0.725713,0.093807,0.659923,12.0,2.0,16.0,45DBP,33
4.78,-0.137815,-0.199563,-1.296406,0.988274,0.135977,0.069461,0.203575,0.02186,-0.007511,0.173851,-0.725908,0.088255,0.659579,12.0,2.0,16.0,45DBP,33
4.79,-0.126892,-0.250776,-1.365474,0.986528,0.14907,0.067387,0.205016,0.048837,0.035137,0.17792,-0.725833,0.082826,0.659281,12.0,2.0,16.0,45DBP,33
4.8,-0.169778,-0.298652,-1.448403,0.98451,0.16285,0.06496,0.220888,0.076865,0.055218,0.182129,-0.72564,0.076982,0.659052,12.0,2.0,16.0,45DBP,33
4.81,-0.221137,-0.351477,-1.51376,0.982192,0.177348,0.062018,0.240189,0.060674,0.053735,0.186409,-0.725275,0.070601,0.658971,12.0,2.0,16.0,45DBP,33
4.82,-0.193105,-0.414561,-1.5799,0.979562,0.192401,0.058647,0.254507,0.010297,0.057365,0.190932,-0.724726,0.064,0.658955,12.0,2.0,16.0,45DBP,33
4.83,-0.507393,-0.438373,-1.645351,0.97656,0.20806,0.055156,0.256732,0.038797,0.084386,0.195153,-0.724139,0.056579,0.659043,12.0,2.0,16.0,45DBP,33
4.84,-0.410621,-0.524424,-1.656697,0.973251,0.223886,0.05156,0.231034,-0.020089,0.144058,0.19897,-0.72348,0.048551,0.659265,12.0,2.0,16.0,45DBP,33
4.85,-0.52864,-0.503045,-1.789311,0.969519,0.240374,0.047459,0.177911,-0.036578,0.079616,0.203146,-0.722567,0.04033,0.659547,12.0,2.0,16.0,45DBP,33
4.86,-0.616371,-0.427617,-1.938523,0.965077,0.258163,0.044467,0.164241,0.069779,0.085675,0.207251,-0.721985,0.031165,0.659404,12.0,2.0,16.0,45DBP,33
4.87,-0.544916,-0.354873,-2.032037,0.959905,0.277112,0.04232,0.207194,0.102786,0.064614,0.211748,-0.72159,0.021614,0.658789,12.0,2.0,16.0,45DBP,33
4.88,-0.397548,-0.434212,-2.051222,0.954199,0.296502,0.039869,0.245568,0.096717,0.073946,0.21681,-0.720961,0.012249,0.658072,12.0,2.0,16.0,45DBP,33
4.89,-0.315377,-0.441246,-2.106346,0.947996,0.316155,0.036747,0.256792,0.108406,0.044109,0.22243,-0.719975,0.003144,0.657382,12.0,2.0,16.0,45DBP,33
4.9,-0.208063,-0.39843,-2.150563,0.941171,0.336249,0.033654,0.238501,0.112206,0.066657,0.228444,-0.718882,-0.005941,0.656495,12.0,2.0,16.0,45DBP,33
4.91,-0.104731,-0.399672,-2.207435,0.933744,0.35665,0.030368,0.212008,0.08204,0.070233,0.235086,-0.717613,-0.014684,0.655401,12.0,2.0,16.0,45DBP,33
4.92,-0.25045,-0.36481,-2.25265,0.925631,0.377425,0.027518,0.186994,0.109025,0.058098,0.241703,-0.716375,-0.023793,0.65408,12.0,2.0,16.0,45DBP,33
4.93,-0.10738,-0.361094,-2.272325,0.916946,0.398232,0.024908,0.171844,0.061867,0.030482,0.248389,-0.715101,-0.032935,0.652571,12.0,2.0,16.0,45DBP,33
4.94,-0.206966,-0.366867,-2.348205,0.907581,0.419293,0.022134,0.153012,0.072604,0.041632,0.25535,-0.713648,-0.042119,0.650945,12.0,2.0,16.0,45DBP,33
4.95,-0.185433,-0.362988,-2.371743,0.897469,0.440633,0.019813,0.156807,0.127025,0.066155,0.262195,-0.712201,-0.051734,0.649113,12.0,2.0,16.0,45DBP,33
4.96,-0.017252,-0.439185,-2.349212,0.886864,0.46173,0.016642,0.15139,0.093079,0.06925,0.269392,-0.71035,-0.061018,0.647385,12.0,2.0,16.0,45DBP,33
4.97,0.104736,-0.437049,-2.351796,0.875828,0.48246,0.012533,0.136867,0.081459,-0.029089,0.277018,-0.708092,-0.069804,0.645751,12.0,2.0,16.0,45DBP,33
4.98,0.124932,-0.448974,-2.378537,0.864192,0.503097,0.008051,0.11179,0.097351,-0.018625,0.284935,-0.705605,-0.078407,0.644039,12.0,2.0,16.0,45DBP,33
4.99,0.162061,-0.518879,-2.388559,0.851949,0.523615,0.003243,0.089717,0.068716,0.032905,0.292897,-0.702878,-0.087084,0.642332,12.0,2.0,16.0,45DBP,33
5.0,0.197058,-0.567473,-2.391945,0.839187,0.543837,-0.002425,0.068894,0.021944,0.016936,0.300983,-0.699738,-0.095677,0.640798,12.0,2.0,16.0,45DBP,33
5.01,0.072508,-0.597988,-2.42031,0.825814,0.563886,-0.008032,0.043724,0.057574,0.019965,0.308869,-0.696458,-0.104545,0.639231,12.0,2.0,16.0,45DBP,33
5.02,0.119418,-0.621082,-2.444726,0.811783,0.583803,-0.01354,0.02182,0.0632,0.024404,0.316598,-0.693041,-0.113686,0.637602,12.0,2.0,16.0,45DBP,33
5.03,0.184886,-0.652863,-2.46236,0.797088,0.603545,-0.019599,0.013902,0.060075,0.000754,0.3246,-0.68931,-0.122686,0.635951,12.0,2.0,16.0,45DBP,33
5.04,0.159083,-0.722961,-2.457691,0.781803,0.622981,-0.026048,-0.006565,0.073811,0.033021,0.332556,-0.685282,-0.131777,0.634374,12.0,2.0,16.0,45DBP,33
5.05,0.388204,-0.755094,-2.452492,0.76603,0.641932,-0.033482,-0.033608,0.036565,0.028889,0.340752,-0.680806,-0.14058,0.632953,12.0,2.0,16.0,45DBP,33
5.06,0.418444,-0.762885,-2.486833,0.749645,0.660507,-0.041988,-0.051159,0.033814,-0.007985,0.349454,-0.675888,-0.148934,0.631566,12.0,2.0,16.0,45DBP,33
5.07,0.467374,-0.792449,-2.527334,0.732449,0.678936,-0.050639,-0.058987,0.047581,0.024561,0.35822,-0.670743,-0.157432,0.630078,12.0,2.0,16.0,45DBP,33
5.08,0.532565,-0.84628,-2.521928,0.714589,0.696962,-0.060057,-0.056935,-0.015383,0.03903,0.367225,-0.665203,-0.165761,0.628629,12.0,2.0,16.0,45DBP,33
5.09,0.440934,-0.92393,-2.51774,0.696197,0.714454,-0.069748,-0.062988,-0.019721,0.058639,0.376016,-0.65937,-0.174232,0.627284,12.0,2.0,16.0,45DBP,33
5.1,0.401071,-0.921485,-2.522356,0.67728,0.731441,-0.079281,-0.082721,-0.023067,0.08807,0.384499,-0.653375,-0.182923,0.62594,12.0,2.0,16.0,45DBP,33
5.11,0.216287,-0.920045,-2.563652,0.657644,0.748212,-0.087657,-0.095281,0.005649,0.098323,0.392579,-0.647519,-0.192071,0.624268,12.0,2.0,16.0,45DBP,33
5.12,0.492446,-0.874079,-2.572039,0.637343,0.764571,-0.096046,-0.106353,-0.032515,0.096198,0.400794,-0.641507,-0.201113,0.622404,12.0,2.0,16.0,45DBP,33
5.13,0.520686,-0.841939,-2.602424,0.616467,0.780274,-0.105548,-0.102155,-0.032334,0.017093,0.409662,-0.635099,-0.209464,0.620444,12.0,2.0,16.0,45DBP,33
5.14,0.582977,-0.787713,-2.635046,0.594905,0.79556,-0.114769,-0.092342,-0.000135,0.040657,0.418613,-0.628642,-0.217772,0.618181,12.0,2.0,16.0,45DBP,33
5.15,0.591468,-0.726704,-2.652353,0.572711,0.810335,-0.123935,-0.083117,-0.036028,0.089755,0.427804,-0.622117,-0.225837,0.61559,12.0,2.0,16.0,45DBP,33
5.16,0.557093,-0.709642,-2.648883,0.550111,0.824463,-0.132807,-0.082215,-0.084412,0.126902,0.436951,-0.615583,-0.233781,0.612762,12.0,2.0,16.0,45DBP,33
5.17,0.326871,-0.673871,-2.697616,0.526905,0.838272,-0.140253,-0.089298,-0.102585,0.16076,0.445658,-0.609288,-0.242161,0.609521,12.0,2.0,16.0,45DBP,33
5.18,0.231246,-0.611368,-2.730652,0.502987,0.851902,-0.145833,-0.094921,-0.09293,0.16454,0.453951,-0.603377,-0.251037,0.605678,12.0,2.0,16.0,45DBP,33
5.19,0.332184,-0.551841,-2.720858,0.478668,0.864914,-0.150998,-0.101287,-0.084763,0.128247,0.46226,-0.597516,-0.259762,0.60151,12.0,2.0,16.0,45DBP,33
5.2,0.460934,-0.504954,-2.705593,0.454193,0.876959,-0.15701,-0.096115,-0.051412,0.107465,0.47092,-0.5914,-0.267845,0.597277,12.0,2.0,16.0,45DBP,33
5.21,0.463191,-0.447697,-2.713071,0.429476,0.888216,-0.163164,-0.084139,0.009702,0.122148,0.479711,-0.585212,-0.275581,0.59284,12.0,2.0,16.0,45DBP,33
5.22,0.572383,-0.412357,-2.695496,0.404537,0.898658,-0.169595,-0.066799,-0.061149,0.154443,0.488625,-0.578899,-0.282981,0.588254,12.0,2.0,16.0,45DBP,33
5.23,0.393302,-0.407331,-2.688636,0.3795,0.908335,-0.175804,-0.046614,-0.155772,0.115212,0.497408,-0.572592,-0.290234,0.583513,12.0,2.0,16.0,45DBP,33
5.24,0.292204,-0.409616,-2.692181,0.354104,0.91769,-0.180154,-0.02308,-0.218608,0.102609,0.505528,-0.566641,-0.298062,0.578375,12.0,2.0,16.0,45DBP,33
5.25,0.403707,-0.394008,-2.648109,0.328706,0.926158,-0.184888,0.008238,-0.276454,0.043362,0.513665,-0.560525,-0.305561,0.573229,12.0,2.0,16.0,45DBP,33
5.26,0.260833,-0.427701,-2.624986,0.303365,0.933893,-0.189245,0.031779,-0.177103,0.108435,0.521476,-0.554411,-0.313059,0.568054,12.0,2.0,16.0,45DBP,33
5.27,0.305316,-0.35862,-2.566747,0.278209,0.940948,-0.192913,0.035146,-0.099671,0.11935,0.528958,-0.54847,-0.320505,0.562725,12.0,2.0,16.0,45DBP,33
5.28,0.691572,-0.298359,-2.494458,0.25361,0.946762,-0.198303,0.038337,-0.102051,0.008316,0.536817,-0.542154,-0.326982,0.557655,12.0,2.0,16.0,45DBP,33
5.29,0.764576,-0.268682,-2.467524,0.22953,0.951164,-0.206402,0.034493,-0.129387,0.051968,0.54535,-0.535182,-0.332233,0.552986,12.0,2.0,16.0,45DBP,33
5.3,0.544055,-0.199477,-2.479026,0.205358,0.955223,-0.213017,0.018183,-0.141808,0.168156,0.553468,-0.528599,-0.33775,0.547888,12.0,2.0,16.0,45DBP,33
5.31,0.365036,-0.089034,-2.451631,0.181451,0.958973,-0.217822,0.013755,-0.214466,0.158557,0.561196,-0.522698,-0.343331,0.542189,12.0,2.0,16.0,45DBP,33
5.32,-0.009951,0.006382,-2.447796,0.15777,0.962773,-0.219493,0.010977,-0.222508,0.214808,0.568164,-0.517858,-0.349394,0.535664,12.0,2.0,16.0,45DBP,33
5.33,-0.128474,0.155725,-2.403886,0.134485,0.966463,-0.218775,0.009558,-0.234225,0.231958,0.57461,-0.51396,-0.355608,0.528404,12.0,2.0,16.0,45DBP,33
5.34,-0.264193,0.254092,-2.354139,0.111862,0.969873,-0.216411,0.005433,-0.174295,0.184703,0.58067,-0.510857,-0.36169,0.520603,12.0,2.0,16.0,45DBP,33
5.35,0.050614,0.359976,-2.266315,0.090027,0.972469,-0.214941,0.006973,-0.162746,0.17684,0.586922,-0.507787,-0.36699,0.512829,12.0,2.0,16.0,45DBP,33
5.36,0.244145,0.458649,-2.179185,0.069256,0.973899,-0.216156,0.005802,-0.132057,0.184067,0.593734,-0.504251,-0.371016,0.505528,12.0,2.0,16.0,45DBP,33
5.37,0.51635,0.568089,-2.086825,0.049549,0.974362,-0.219463,0.006466,-0.091519,0.136302,0.600991,-0.500454,-0.373918,0.498539,12.0,2.0,16.0,45DBP,33
5.38,0.668807,0.603331,-2.025548,0.030814,0.973834,-0.22516,0.026407,-0.12804,0.08986,0.608716,-0.49622,-0.375748,0.491981,12.0,2.0,16.0,45DBP,33
5.39,0.744361,0.635522,-1.923145,0.012926,0.972655,-0.231893,0.050657,-0.200439,0.159002,0.616472,-0.491839,-0.377024,0.485704,12.0,2.0,16.0,45DBP,33
5.4,0.715927,0.64554,-1.788769,-0.003576,0.970965,-0.239196,0.065954,-0.271654,0.174957,0.62401,-0.487554,-0.377747,0.479802,12.0,2.0,16.0,45DBP,33
5.41,0.166589,0.675687,-1.73328,-0.019046,0.969652,-0.243746,0.05408,-0.273577,0.303439,0.630558,-0.484345,-0.378863,0.473571,12.0,2.0,16.0,45DBP,33
5.42,-0.03588,0.748268,-1.709625,-0.034058,0.969149,-0.244112,0.03534,-0.309359,0.250475,0.636025,-0.482688,-0.380731,0.466399,12.0,2.0,16.0,45DBP,33
5.43,0.186582,0.788988,-1.601464,-0.048284,0.968266,-0.245212,0.061559,-0.387471,0.134342,0.64154,-0.481043,-0.382088,0.459382,12.0,2.0,16.0,45DBP,33
5.44,0.249868,0.782871,-1.496679,-0.061349,0.966878,-0.247757,0.078927,-0.329289,0.06868,0.647111,-0.479173,-0.382772,0.452909,12.0,2.0,16.0,45DBP,33
5.45,0.418818,0.778416,-1.393966,-0.07345,0.965064,-0.251509,0.089044,-0.286857,0.142134,0.652657,-0.477044,-0.382981,0.446983,12.0,2.0,16.0,45DBP,33
5.46,0.461984,0.82837,-1.260413,-0.084211,0.962903,-0.256372,0.078016,-0.27406,0.156854,0.65819,-0.474851,-0.382532,0.441556,12.0,2.0,16.0,45DBP,33
5.47,0.731516,0.848577,-1.137347,-0.093572,0.960275,-0.2629,0.068379,-0.268548,0.095511,0.663865,-0.472427,-0.381265,0.43673,12.0,2.0,16.0,45DBP,33
5.48,0.631969,0.854223,-1.027973,-0.101691,0.957344,-0.270465,0.076758,-0.253197,0.144458,0.669483,-0.469865,-0.379466,0.432465,12.0,2.0,16.0,45DBP,33
5.49,0.649975,0.88307,-0.936725,-0.108708,0.954612,-0.277305,0.084203,-0.247611,0.139427,0.674708,-0.467803,-0.377502,0.428277,12.0,2.0,16.0,45DBP,33
5.5,0.637062,0.946186,-0.827559,-0.114575,0.951755,-0.284665,0.082517,-0.343387,0.196164,0.679856,-0.465825,-0.375066,0.424415,12.0,2.0,16.0,45DBP,33
5.51,0.239943,1.015773,-0.80398,-0.119449,0.949531,-0.290038,0.044131,-0.444511,0.138076,0.684451,-0.464885,-0.372644,0.420173,12.0,2.0,16.0,45DBP,33
5.52,-0.201067,1.064885,-0.80413,-0.124162,0.948449,-0.291595,0.042146,-0.523385,0.156188,0.68815,-0.465429,-0.370916,0.415026,12.0,2.0,16.0,45DBP,33
5.53,-0.853787,1.147781,-0.682032,-0.128093,0.949045,-0.287934,0.049724,-0.506311,0.244034,0.69051,-0.468156,-0.36995,0.408855,12.0,2.0,16.0,45DBP,33
5.54,-1.072705,1.194224,-0.521776,-0.130499,0.95112,-0.279895,0.056555,-0.441293,0.150378,0.691537,-0.472894,-0.369356,0.402149,12.0,2.0,16.0,45DBP,33
5.55,-0.921352,1.215697,-0.38945,-0.131547,0.953328,-0.271775,0.094178,-0.336674,0.057572,0.69225,-0.477972,-0.368315,0.395824,12.0,2.0,16.0,45DBP,33
5.56,-0.573831,1.276191,-0.28372,-0.13155,0.954968,-0.265951,0.128453,-0.202283,0.049001,0.693343,-0.482476,-0.36639,0.390193,12.0,2.0,16.0,45DBP,33
5.57,-0.009915,1.330686,-0.102379,-0.1301,0.955547,-0.264583,0.134007,-0.16975,0.014201,0.695349,-0.485738,-0.362997,0.385721,12.0,2.0,16.0,45DBP,33
5.58,0.337684,1.272757,0.079652,-0.126794,0.955061,-0.267919,0.144891,-0.197737,-0.036555,0.698161,-0.487611,-0.358156,0.382792,12.0,2.0,16.0,45DBP,33
5.59,0.309353,1.238729,0.230766,-0.121934,0.954317,-0.272783,0.144883,-0.232836,0.063173,0.700935,-0.489062,-0.352741,0.380895,12.0,2.0,16.0,45DBP,33
5.6,-0.071453,1.228047,0.319399,-0.115916,0.954306,-0.275433,0.115779,-0.278037,0.115536,0.702871,-0.491452,-0.347503,0.379063,12.0,2.0,16.0,45DBP,33
5.61,-0.437462,1.229879,0.367335,-0.109269,0.955434,-0.274239,0.098725,-0.348393,0.120018,0.703687,-0.495322,-0.342836,0.376755,12.0,2.0,16.0,45DBP,33
5.62,-0.581523,1.203099,0.44194,-0.1021,0.957293,-0.270492,0.114932,-0.405779,0.053695,0.7037,-0.500151,-0.33853,0.374235,12.0,2.0,16.0,45DBP,33
5.63,-0.628996,1.150442,0.558741,-0.094169,0.959403,-0.265854,0.154014,-0.3861,0.034271,0.703233,-0.505313,-0.334264,0.372008,12.0,2.0,16.0,45DBP,33
5.64,-0.642957,1.167248,0.708788,-0.085037,0.96169,-0.260616,0.180039,-0.292592,0.053676,0.702318,-0.510807,-0.329801,0.370212,12.0,2.0,16.0,45DBP,33
5.65,-0.33546,1.157684,0.881765,-0.074351,0.963647,-0.256624,0.186869,-0.198846,-0.021299,0.701452,-0.516069,-0.324592,0.369157,12.0,2.0,16.0,45DBP,33
5.66,0.08131,1.047582,1.048665,-0.062185,0.96462,-0.256204,0.211462,-0.131368,-0.10874,0.701124,-0.520092,-0.318437,0.369495,12.0,2.0,16.0,45DBP,33
5.67,0.172485,0.947947,1.189789,-0.048802,0.964844,-0.258251,0.218388,-0.116654,-0.020466,0.701018,-0.523158,-0.311738,0.371079,12.0,2.0,16.0,45DBP,33
5.68,-0.190065,0.927571,1.286446,-0.034391,0.965342,-0.258711,0.168699,-0.196345,0.099836,0.700166,-0.526787,-0.305189,0.372992,12.0,2.0,16.0,45DBP,33
5.69,-0.605491,0.952792,1.356181,-0.019181,0.966733,-0.255066,0.131501,-0.321699,0.063446,0.698042,-0.531953,-0.299153,0.374527,12.0,2.0,16.0,45DBP,33
5.7,-1.083742,0.961454,1.435404,-0.003239,0.969026,-0.246935,0.14066,-0.390642,0.063433,0.694573,-0.538795,-0.293653,0.375548,12.0,2.0,16.0,45DBP,33
5.71,-1.280152,0.969717,1.532985,0.013544,0.971839,-0.235257,0.153524,-0.36724,0.009365,0.689933,-0.546931,-0.28851,0.376326,12.0,2.0,16.0,45DBP,33
5.72,-1.295891,0.794627,1.567881,0.030736,0.974491,-0.222312,0.172969,-0.129169,-0.2445,0.684654,-0.555331,-0.283639,0.377365,12.0,2.0,16.0,45DBP,33
5.73,-1.099004,0.618356,1.517355,0.04744,0.976474,-0.21035,0.161041,0.227627,-0.399956,0.67938,-0.562958,-0.279112,0.378969,12.0,2.0,16.0,45DBP,33
5.74,-1.143747,0.192687,1.125899,0.061612,0.977983,-0.199384,0.101154,0.897612,-0.808826,0.674271,-0.569368,-0.275913,0.380854,12.0,2.0,16.0,45DBP,33
5.75,-1.114509,-0.442867,-0.017226,0.067245,0.979895,-0.187839,-0.014312,2.113809,-1.138043,0.669542,-0.573936,-0.276909,0.381618,12.0,2.0,16.0,45DBP,33
5.76,0.403447,-0.469782,-1.240759,0.059599,0.981171,-0.183716,-0.206953,2.751419,-1.000138,0.668821,-0.573521,-0.281453,0.38018,12.0,2.0,16.0,45DBP,33
5.77,2.501299,-0.090925,-1.278031,0.045975,0.979028,-0.198472,-0.296647,1.771125,-0.532012,0.675193,-0.566088,-0.283388,0.378615,12.0,2.0,16.0,45DBP,33
5.78,3.355645,0.232027,-0.699438,0.036442,0.972951,-0.22812,-0.217075,0.501124,-0.216338,0.685686,-0.554476,-0.280173,0.379334,12.0,2.0,16.0,45DBP,33
5.79,2.944162,0.476624,-0.24867,0.03291,0.965268,-0.259182,-0.127744,-0.222439,-0.041752,0.695885,-0.543417,-0.274056,0.381229,12.0,2.0,16.0,45DBP,33
5.8,1.678379,0.551506,-0.08314,0.032787,0.95901,-0.281469,0.005192,-0.634623,0.171926,0.703197,-0.536034,-0.268203,0.382425,12.0,2.0,16.0,45DBP,33
5.81,0.492841,0.596187,0.05905,0.034318,0.955952,-0.291511,0.155074,-0.836033,0.20977,0.706836,-0.533344,-0.264175,0.38228,12.0,2.0,16.0,45DBP,33
5.82,-0.460789,0.543453,0.173468,0.037129,0.955904,-0.291323,0.277537,-0.819643,0.140337,0.707403,-0.534614,-0.261776,0.381108,12.0,2.0,16.0,45DBP,33
5.83,-0.760327,0.410215,0.372801,0.041059,0.957718,-0.284764,0.330325,-0.658936,0.181019,0.705729,-0.538222,-0.260644,0.379906,12.0,2.0,16.0,45DBP,33
5.84,-0.827459,0.319222,0.602011,0.046762,0.959723,-0.27703,0.287161,-0.39086,0.142326,0.703137,-0.542327,-0.25955,0.379624,12.0,2.0,16.0,45DBP,33
5.85,-0.460803,0.292224,0.777007,0.054217,0.961296,-0.27013,0.206891,-0.106896,0.072864,0.700288,-0.546248,-0.25797,0.380344,12.0,2.0,16.0,45DBP,33
5.86,0.346755,0.371578,0.889176,0.063172,0.960929,-0.269488,0.14038,-0.009697,0.066592,0.698998,-0.548125,-0.254588,0.38229,12.0,2.0,16.0,45DBP,33
5.87,0.726565,0.424941,0.988829,0.07328,0.95874,-0.274678,0.062691,-0.028198,0.23267,0.699245,-0.548078,-0.249543,0.385222,12.0,2.0,16.0,45DBP,33
5.88,0.832968,0.476919,0.967175,0.084002,0.955802,-0.281754,-0.024005,-0.133644,0.217407,0.700024,-0.547461,-0.243741,0.388385,12.0,2.0,16.0,45DBP,33
5.89,0.765157,0.54354,0.865513,0.094244,0.952591,-0.28929,-0.047277,-0.259186,0.177885,0.701132,-0.546629,-0.237807,0.391227,12.0,2.0,16.0,45DBP,33
5.9,0.123442,0.519461,0.708441,0.103282,0.950512,-0.293017,-0.020213,-0.266781,0.170901,0.701456,-0.547042,-0.232887,0.393024,12.0,2.0,16.0,45DBP,33
5.91,-0.362693,0.417619,0.609964,0.110846,0.950219,-0.2912,0.044199,-0.239938,0.141007,0.700345,-0.549208,-0.229719,0.393849,12.0,2.0,16.0,45DBP,33
5.92,-0.674377,0.250643,0.544354,0.117278,0.951129,-0.285656,0.108705,-0.070438,0.000698,0.698104,-0.552427,-0.228028,0.394308,12.0,2.0,16.0,45DBP,33
5.93,-0.73508,0.063965,0.464692,0.122536,0.952533,-0.278686,0.13697,0.224133,-0.055878,0.695309,-0.555793,-0.227488,0.394827,12.0,2.0,16.0,45DBP,33
5.94,-0.713078,-0.082968,0.344037,0.12638,0.954073,-0.27161,0.118432,0.497144,-0.070004,0.69242,-0.558814,-0.227864,0.395422,12.0,2.0,16.0,45DBP,33
5.95,-0.422714,-0.161276,0.251111,0.128842,0.955279,-0.266159,0.069232,0.592877,-0.103653,0.690045,-0.560928,-0.228649,0.396128,12.0,2.0,16.0,45DBP,33
5.96,0.061324,-0.166282,0.198419,0.130532,0.955483,-0.264599,0.013099,0.509299,-0.199314,0.688884,-0.56149,-0.228974,0.397162,12.0,2.0,16.0,45DBP,33
5.97,0.327051,-0.146979,0.189314,0.131935,0.954641,-0.266934,-0.026329,0.344935,-0.143055,0.688941,-0.560623,-0.228551,0.398531,12.0,2.0,16.0,45DBP,33
5.98,0.093122,-0.082331,0.195756,0.133487,0.953758,-0.269309,-0.070499,0.149025,-0.014886,0.689071,-0.559812,-0.227939,0.399795,12.0,2.0,16.0,45DBP,33
5.99,-0.230125,0.011041,0.212801,0.135316,0.953682,-0.268665,-0.112794,-0.074959,-0.002377,0.688416,-0.560216,-0.227653,0.40052,12.0,2.0,16.0,45DBP,33
6.0,-0.530505,0.112199,0.251291,0.137677,0.954389,-0.264927,-0.106076,-0.206159,-0.029201,0.686952,-0.561919,-0.22756,0.400701,12.0,2.0,16.0,45DBP,33
6.01,-0.715105,0.198904,0.328792,0.140829,0.955661,-0.25861,-0.069372,-0.188922,-0.01582,0.684759,-0.564751,-0.227489,0.400512,12.0,2.0,16.0,45DBP,33
6.02,-0.656549,0.245592,0.431232,0.145042,0.956913,-0.251555,-0.017052,-0.117268,-0.041719,0.682262,-0.568042,-0.227048,0.40037,12.0,2.0,16.0,45DBP,33
6.03,-0.427461,0.23927,0.565428,0.150422,0.957543,-0.245935,0.031341,-0.059396,-0.043921,0.679973,-0.570966,-0.2259,0.400754,12.0,2.0,16.0,45DBP,33
6.04,-0.228445,0.235362,0.677923,0.156991,0.957375,-0.242461,0.060874,-0.022881,-0.06685,0.678055,-0.573248,-0.223957,0.401835,12.0,2.0,16.0,45DBP,33
6.05,-0.021716,0.210123,0.746042,0.164375,0.956542,-0.240848,0.075295,-0.042556,-0.075528,0.676491,-0.574939,-0.221407,0.403465,12.0,2.0,16.0,45DBP,33
6.06,0.137874,0.141591,0.818398,0.172288,0.955053,-0.241226,0.076018,-0.148931,-0.029449,0.675309,-0.575921,-0.218406,0.405673,12.0,2.0,16.0,45DBP,33
6.07,0.045704,0.062849,0.888391,0.180722,0.953291,-0.242025,0.053898,-0.206541,-0.01182,0.673965,-0.576711,-0.215387,0.408391,12.0,2.0,16.0,45DBP,33
6.08,-0.02553,-0.007203,0.887374,0.189291,0.95163,-0.242011,0.033136,-0.193817,-0.036782,0.672179,-0.577712,-0.212706,0.411316,12.0,2.0,16.0,45DBP,33
6.09,-0.031498,-0.089005,0.851148,0.197463,0.950027,-0.24178,0.03679,-0.167404,-0.055248,0.67024,-0.578654,-0.210404,0.414329,12.0,2.0,16.0,45DBP,33
6.1,0.032271,-0.175324,0.850157,0.205205,0.948324,-0.242015,0.045695,-0.141974,-0.004292,0.668325,-0.579279,-0.208395,0.417551,12.0,2.0,16.0,45DBP,33
6.11,0.091963,-0.275976,0.891564,0.212925,0.946341,-0.24311,0.022061,-0.110403,-0.007165,0.666453,-0.579491,-0.206482,0.421184,12.0,2.0,16.0,45DBP,33
6.12,0.064974,-0.412718,0.892466,0.220569,0.944196,-0.244627,-0.009876,-0.064863,-0.035494,0.664435,-0.579414,-0.204854,0.425252,12.0,2.0,16.0,45DBP,33
6.13,0.136085,-0.481805,0.879615,0.227801,0.941993,-0.246487,-0.039401,-0.077323,-0.02863,0.662335,-0.57905,-0.203612,0.4296,12.0,2.0,16.0,45DBP,33
6.14,0.130288,-0.525695,0.890442,0.234882,0.939564,-0.249098,-0.075977,-0.102925,-0.003252,0.660358,-0.578353,-0.202382,0.434139,12.0,2.0,16.0,45DBP,33
6.15,-0.047978,-0.570151,0.885625,0.241822,0.937376,-0.250695,-0.101945,-0.046706,0.037606,0.657952,-0.577945,-0.201574,0.438687,12.0,2.0,16.0,45DBP,33
6.16,0.057169,-0.554621,0.866235,0.24863,0.93525,-0.251971,-0.112567,-0.015527,0.006961,0.655411,-0.577621,-0.200918,0.443195,12.0,2.0,16.0,45DBP,33
6.17,-0.016185,-0.514059,0.790714,0.255025,0.933025,-0.253825,-0.094624,0.084553,0.064356,0.653172,-0.577079,-0.200169,0.447525,12.0,2.0,16.0,45DBP,33
6.18,-0.317547,-0.403725,0.70196,0.260786,0.931595,-0.253223,-0.065107,0.230652,0.115756,0.65049,-0.577414,-0.199954,0.451081,12.0,2.0,16.0,45DBP,33
6.19,0.041014,-0.390572,0.661452,0.266098,0.930268,-0.252571,-0.019364,0.166487,-0.022499,0.64805,-0.577794,-0.199672,0.454221,12.0,2.0,16.0,45DBP,33
6.2,0.447546,-0.442383,0.654779,0.271138,0.927817,-0.256204,0.034648,0.064096,-0.091773,0.646916,-0.576621,-0.198512,0.457822,12.0,2.0,16.0,45DBP,33
6.21,0.436365,-0.464527,0.66579,0.276073,0.924816,-0.261724,0.046085,0.08022,-0.048106,0.646266,-0.57473,-0.197037,0.461738,12.0,2.0,16.0,45DBP,33
6.22,0.235409,-0.401803,0.659477,0.281064,0.922046,-0.266145,0.032428,0.076183,0.035341,0.645283,-0.573247,-0.195744,0.465492,12.0,2.0,16.0,45DBP,33
6.23,-0.124684,-0.304895,0.594453,0.285913,0.920105,-0.267695,0.001654,0.024384,0.066798,0.643634,-0.572842,-0.194948,0.468597,12.0,2.0,16.0,45DBP,33
6.24,-0.428309,-0.219029,0.562319,0.290501,0.919212,-0.265815,-0.021641,-0.071266,0.083426,0.641212,-0.573709,-0.194808,0.470907,12.0,2.0,16.0,45DBP,33
6.25,-0.578984,-0.175362,0.59451,0.29529,0.918875,-0.261673,-0.027758,-0.149115,0.048752,0.638188,-0.575452,-0.194983,0.472813,12.0,2.0,16.0,45DBP,33
6.26,-0.625097,-0.155813,0.636318,0.300528,0.918609,-0.256592,-0.014029,-0.128876,0.021057,0.634821,-0.577594,-0.195164,0.474655,12.0,2.0,16.0,45DBP,33
6.27,-0.74606,-0.141945,0.641968,0.306026,0.918405,-0.250757,0.016407,-0.012308,0.048807,0.631177,-0.580032,-0.195408,0.476439,12.0,2.0,16.0,45DBP,33
6.28,-0.834461,-0.111575,0.646844,0.311596,0.918417,-0.243757,0.043201,0.110727,0.077452,0.627185,-0.582888,-0.195863,0.478035,12.0,2.0,16.0,45DBP,33
6.29,-0.687272,-0.117857,0.708778,0.317537,0.918152,-0.236995,0.066725,0.142196,0.061809,0.623193,-0.585705,-0.196093,0.479717,12.0,2.0,16.0,45DBP,33
6.3,-0.592309,-0.145442,0.753131,0.323974,0.917271,-0.231634,0.068833,0.130535,0.033437,0.619449,-0.588067,-0.195858,0.481767,12.0,2.0,16.0,45DBP,33
6.31,-0.467453,-0.167341,0.754554,0.330584,0.916035,-0.227142,0.05467,0.101756,-0.027024,0.615853,-0.590119,-0.19542,0.484042,12.0,2.0,16.0,45DBP,33
6.32,-0.312596,-0.159669,0.753492,0.33713,0.914363,-0.224241,0.053709,0.05486,-0.050326,0.612741,-0.591613,-0.194611,0.486486,12.0,2.0,16.0,45DBP,33
6.33,-0.379729,-0.132739,0.745537,0.343673,0.912572,-0.221585,0.05336,0.080378,-0.019794,0.609752,-0.593045,-0.193662,0.488871,12.0,2.0,16.0,45DBP,33
6.34,-0.166039,-0.10961,0.770975,0.35033,0.910591,-0.219301,0.052579,0.068809,-0.022322,0.606896,-0.594385,-0.1925,0.491251,12.0,2.0,16.0,45DBP,33
6.35,0.159,-0.08498,0.797514,0.357269,0.9078,-0.219675,0.050309,0.055594,-0.025641,0.604877,-0.594889,-0.190445,0.493924,12.0,2.0,16.0,45DBP,33
6.36,0.328694,-0.05852,0.809589,0.364433,0.90435,-0.222127,0.033578,0.133401,-0.020503,0.603536,-0.594747,-0.187649,0.496798,12.0,2.0,16.0,45DBP,33
6.37,0.627952,-0.088674,0.799588,0.371537,0.90032,-0.226681,0.010985,0.124247,-9.6e-05,0.602884,-0.593887,-0.184278,0.499872,12.0,2.0,16.0,45DBP,33
6.38,0.681471,-0.104266,0.796021,0.378489,0.895742,-0.233223,-0.009547,0.036646,0.069541,0.602827,-0.592297,-0.180482,0.5032,12.0,2.0,16.0,45DBP,33
6.39,0.412963,-0.055062,0.770079,0.385339,0.891429,-0.238471,-0.051232,-0.019603,0.108069,0.602403,-0.591131,-0.176998,0.506306,12.0,2.0,16.0,45DBP,33
6.4,0.136533,-0.015749,0.686308,0.391754,0.887928,-0.241067,-0.070663,-0.116672,0.098443,0.601337,-0.590853,-0.17424,0.508848,12.0,2.0,16.0,45DBP,33
6.41,-0.153716,-0.002763,0.646357,0.3976,0.885332,-0.241043,-0.052888,-0.17798,0.11322,0.59963,-0.591426,-0.17232,0.510847,12.0,2.0,16.0,45DBP,33
6.42,-0.377311,-0.032968,0.674595,0.403385,0.883352,-0.238684,-0.023716,-0.147787,0.105673,0.59712,-0.59277,-0.171119,0.51263,12.0,2.0,16.0,45DBP,33
6.43,-0.438043,-0.086478,0.713081,0.409415,0.881513,-0.235189,0.001763,-0.06999,0.056478,0.594025,-0.594478,-0.170299,0.514518,12.0,2.0,16.0,45DBP,33
6.44,-0.395841,-0.14701,0.714978,0.415428,0.879549,-0.231977,0.005394,0.001936,0.023161,0.590825,-0.596022,-0.169616,0.516638,12.0,2.0,16.0,45DBP,33
6.45,-0.352428,-0.168047,0.715964,0.42134,0.877425,-0.229343,-0.006668,0.045488,0.014575,0.587715,-0.59732,-0.168929,0.518905,12.0,2.0,16.0,45DBP,33
6.46,-0.339117,-0.178507,0.713055,0.427231,0.875171,-0.227043,-0.026292,0.039395,-0.005593,0.584672,-0.598491,-0.168189,0.521229,12.0,2.0,16.0,45DBP,33
6.47,-0.346853,-0.179107,0.702726,0.433035,0.87289,-0.224818,-0.050299,-0.006115,0.003474,0.581638,-0.599617,-0.167481,0.523552,12.0,2.0,16.0,45DBP,33
6.48,-0.360243,-0.171208,0.696933,0.43874,0.870624,-0.222531,-0.05814,-0.006229,0.008313,0.578599,-0.600755,-0.166816,0.525821,12.0,2.0,16.0,45DBP,33
6.49,-0.510176,-0.136004,0.664684,0.444352,0.868567,-0.219411,-0.05272,0.060662,0.027181,0.575359,-0.602182,-0.166347,0.52789,12.0,2.0,16.0,45DBP,33
6.5,-0.454126,-0.124574,0.667546,0.449839,0.866701,-0.215578,-0.03602,0.080869,-0.003294,0.571974,-0.603855,-0.166043,0.52975,12.0,2.0,16.0,45DBP,33
6.51,-0.258397,-0.121733,0.716417,0.455551,0.864333,-0.213076,-0.00383,0.072007,-0.068861,0.568967,-0.605107,-0.16525,0.531802,12.0,2.0,16.0,45DBP,33
6.52,-0.022071,-0.133198,0.761437,0.461689,0.861255,-0.212326,0.018001,0.108319,-0.123459,0.566427,-0.605821,-0.163761,0.534157,12.0,2.0,16.0,45DBP,33
6.53,0.207874,-0.16881,0.824889,0.468171,0.857349,-0.213935,0.022628,0.097241,-0.088784,0.5645,-0.605761,-0.161511,0.536942,12.0,2.0,16.0,45DBP,33
6.54,0.207441,-0.169177,0.883997,0.475106,0.852845,-0.216633,0.010231,0.088576,-0.018826,0.562729,-0.60536,-0.158817,0.540048,12.0,2.0,16.0,45DBP,33
6.55,0.144442,-0.115259,0.907902,0.482455,0.848162,-0.218768,-0.016726,0.082487,-0.004591,0.560695,-0.605203,-0.15603,0.543144,12.0,2.0,16.0,45DBP,33
6.56,0.159624,-0.108321,0.892111,0.489857,0.843439,-0.220568,-0.04192,0.027441,-0.004621,0.558606,-0.605185,-0.15319,0.546116,12.0,2.0,16.0,45DBP,33
6.57,0.098142,-0.114505,0.885821,0.497097,0.838741,-0.222279,-0.055904,-0.008312,0.031315,0.556501,-0.60517,-0.150431,0.549041,12.0,2.0,16.0,45DBP,33
6.58,0.001503,-0.096624,0.883104,0.504266,0.834212,-0.223172,-0.061319,0.016099,0.029202,0.554118,-0.605419,-0.147925,0.55185,12.0,2.0,16.0,45DBP,33
6.59,0.016232,-0.095768,0.849827,0.51131,0.829787,-0.22364,-0.070499,0.029343,-0.017952,0.551647,-0.605805,-0.145534,0.554532,12.0,2.0,16.0,45DBP,33
6.6,0.004698,-0.101185,0.80929,0.517951,0.825476,-0.224314,-0.068183,0.014215,-0.006384,0.549322,-0.606072,-0.143249,0.557137,12.0,2.0,16.0,45DBP,33
6.61,-0.061408,-0.100178,0.811072,0.52437,0.821344,-0.224568,-0.044267,0.034277,0.017888,0.546895,-0.606453,-0.141174,0.559634,12.0,2.0,16.0,45DBP,33
6.62,-0.04177,-0.11251,0.821616,0.530832,0.817169,-0.224616,-0.023065,0.053131,0.002387,0.544341,-0.606901,-0.139154,0.56214,12.0,2.0,16.0,45DBP,33
6.63,0.066401,-0.167616,0.81737,0.537218,0.81276,-0.225428,-0.014406,0.04988,-0.019567,0.541958,-0.607054,-0.137009,0.564797,12.0,2.0,16.0,45DBP,33
6.64,0.169687,-0.209463,0.806532,0.543366,0.8081,-0.227436,-0.019501,0.047552,-0.02473,0.539894,-0.606739,-0.134721,0.567655,12.0,2.0,16.0,45DBP,33
6.65,0.227512,-0.238677,0.781152,0.549267,0.803281,-0.230314,-0.034237,0.05852,-0.002947,0.538094,-0.606078,-0.132336,0.570624,12.0,2.0,16.0,45DBP,33
6.66,0.176353,-0.256539,0.724508,0.554745,0.798632,-0.233334,-0.0518,0.04965,0.020764,0.536397,-0.605311,-0.13012,0.573538,12.0,2.0,16.0,45DBP,33
6.67,0.091654,-0.290532,0.680005,0.55968,0.794422,-0.235906,-0.061236,-0.003147,0.030721,0.534605,-0.604625,-0.128358,0.576325,12.0,2.0,16.0,45DBP,33
6.68,-0.001935,-0.304475,0.632557,0.564186,0.790606,-0.237984,-0.061836,-0.035617,0.021263,0.532668,-0.604048,-0.127019,0.579014,12.0,2.0,16.0,45DBP,33
6.69,-0.17912,-0.301382,0.564612,0.568171,0.787433,-0.239023,-0.056925,-0.027377,0.046213,0.53048,-0.603774,-0.126278,0.581465,12.0,2.0,16.0,45DBP,33
6.7,-0.287713,-0.311333,0.539737,0.571762,0.784883,-0.238843,-0.037201,-0.017794,0.047254,0.527949,-0.603877,-0.126139,0.583688,12.0,2.0,16.0,45DBP,33
6.71,-0.272329,-0.327762,0.540251,0.575231,0.782475,-0.238416,-0.016454,-0.013142,0.014692,0.525299,-0.604043,-0.126191,0.585891,12.0,2.0,16.0,45DBP,33
6.72,-0.170622,-0.33629,0.548061,0.578699,0.779873,-0.238548,-0.001917,-0.006145,-0.010887,0.522807,-0.604012,-0.126076,0.588173,12.0,2.0,16.0,45DBP,33
6.73,-0.071796,-0.364062,0.571676,0.582232,0.776903,-0.239642,-0.009417,-0.005159,0.012149,0.520563,-0.603647,-0.125656,0.590623,12.0,2.0,16.0,45DBP,33
6.74,-0.010524,-0.366093,0.560481,0.585765,0.773656,-0.241527,-0.034175,-0.005819,0.036281,0.518546,-0.603004,-0.12499,0.593189,12.0,2.0,16.0,45DBP,33
6.75,-0.084972,-0.325855,0.517661,0.589094,0.770592,-0.24322,-0.045561,0.002571,0.046962,0.516588,-0.602425,-0.124394,0.595606,12.0,2.0,16.0,45DBP,33
6.76,-0.215846,-0.303932,0.493927,0.592207,0.767975,-0.243936,-0.039549,-0.034592,0.077569,0.514444,-0.602183,-0.124127,0.597758,12.0,2.0,16.0,45DBP,33
6.77,-0.313723,-0.307644,0.481643,0.595201,0.765754,-0.243633,-0.017747,-0.073707,0.064922,0.511968,-0.602281,-0.124265,0.599754,12.0,2.0,16.0,45DBP,33
6.78,-0.333154,-0.31319,0.469662,0.598087,0.7637,-0.243011,0.006238,-0.065107,0.023605,0.509363,-0.602469,-0.124603,0.60171,12.0,2.0,16.0,45DBP,33
6.79,-0.306253,-0.318546,0.461275,0.600863,0.761699,-0.24244,0.021711,-0.024929,-0.002753,0.506791,-0.602627,-0.124981,0.603642,12.0,2.0,16.0,45DBP,33
6.8,-0.290848,-0.30466,0.4668,0.60363,0.759639,-0.242032,0.028572,0.004979,-0.010623,0.504283,-0.602733,-0.125289,0.605569,12.0,2.0,16.0,45DBP,33
6.81,-0.209049,-0.277767,0.484318,0.606531,0.757367,-0.241898,0.038961,0.026126,-0.032166,0.501903,-0.602776,-0.12535,0.607489,12.0,2.0,16.0,45DBP,33
6.82,-0.107625,-0.263018,0.510183,0.609656,0.754718,-0.242322,0.040933,0.030331,-0.039539,0.499728,-0.60267,-0.12501,0.609453,12.0,2.0,16.0,45DBP,33
6.83,-0.000174,-0.264827,0.513829,0.612875,0.751722,-0.243513,0.033121,0.016985,-0.045244,0.497833,-0.602324,-0.124293,0.611489,12.0,2.0,16.0,45DBP,33
6.84,0.067371,-0.259351,0.506003,0.616065,0.7485,-0.245379,0.02221,0.010945,-0.032407,0.496213,-0.601754,-0.123299,0.613565,12.0,2.0,16.0,45DBP,33
6.85,0.093571,-0.254315,0.498962,0.619192,0.745187,-0.247585,0.010416,0.004004,-0.007741,0.49476,-0.601069,-0.122164,0.615633,12.0,2.0,16.0,45DBP,33
6.86,0.049036,-0.261744,0.47031,0.622161,0.742001,-0.249701,-0.002685,-0.013241,0.007498,0.493318,-0.600398,-0.121126,0.617647,12.0,2.0,16.0,45DBP,33
6.87,-0.038644,-0.279281,0.443764,0.624873,0.739123,-0.251458,-0.004634,-0.03345,0.026726,0.491772,-0.599815,-0.120385,0.619588,12.0,2.0,16.0,45DBP,33
6.88,-0.14658,-0.302446,0.43281,0.62737,0.736625,-0.252568,0.006175,-0.032584,0.014927,0.489944,-0.599412,-0.120091,0.621481,12.0,2.0,16.0,45DBP,33
6.89,-0.156248,-0.322776,0.428542,0.629764,0.73431,-0.253351,0.016797,-0.035228,-0.01792,0.487935,-0.599093,-0.12005,0.623373,12.0,2.0,16.0,45DBP,33
6.9,-0.179257,-0.356234,0.43356,0.632047,0.732032,-0.254255,0.014956,-0.030204,0.012326,0.4859,-0.598705,-0.120107,0.625322,12.0,2.0,16.0,45DBP,33
6.91,-0.181214,-0.381802,0.437186,0.634295,0.729738,-0.255249,-0.005328,-0.011324,0.043625,0.483761,-0.598256,-0.120273,0.627375,12.0,2.0,16.0,45DBP,33
6.92,-0.188436,-0.352837,0.41142,0.636438,0.727514,-0.256262,-0.037164,0.0142,0.025366,0.481642,-0.597789,-0.12049,0.629406,12.0,2.0,16.0,45DBP,33
6.93,-0.165141,-0.271068,0.397808,0.638559,0.725421,-0.256918,-0.049753,0.03439,-0.022608,0.47963,-0.597487,-0.120623,0.6312,12.0,2.0,16.0,45DBP,33
6.94,-0.087814,-0.206847,0.414389,0.640887,0.723169,-0.257471,-0.022875,0.026663,-0.060659,0.477823,-0.597304,-0.120386,0.632788,12.0,2.0,16.0,45DBP,33
6.95,0.036864,-0.187557,0.451906,0.6435,0.720452,-0.258567,0.010919,0.021018,-0.086953,0.476262,-0.596994,-0.119642,0.634396,12.0,2.0,16.0,45DBP,33
6.96,0.095248,-0.153448,0.475589,0.646392,0.717284,-0.260155,0.024232,0.030778,-0.096748,0.474888,-0.596567,-0.118449,0.636049,12.0,2.0,16.0,45DBP,33
6.97,0.110681,-0.125743,0.486573,0.649457,0.713891,-0.261849,0.01639,0.016807,-0.057868,0.473603,-0.596142,-0.117005,0.637671,12.0,2.0,16.0,45DBP,33
6.98,0.06967,-0.097414,0.486813,0.652633,0.710489,-0.263201,-9.1e-05,0.001486,-0.024183,0.472237,-0.59586,-0.115545,0.639213,12.0,2.0,16.0,45DBP,33
6.99,0.05213,-0.064108,0.474109,0.655838,0.707176,-0.264154,-0.014985,-0.000801,-0.014899,0.470826,-0.595737,-0.114107,0.640625,12.0,2.0,16.0,45DBP,33
7.0,0.070926,-0.044627,0.434788,0.658913,0.704025,-0.264919,-0.031898,-0.008393,-0.003758,0.469512,-0.595687,-0.112685,0.641886,12.0,2.0,16.0,45DBP,33
7.01,0.061725,-0.042244,0.390247,0.661696,0.70113,-0.265658,-0.041304,-0.02036,0.005725,0.468361,-0.595628,-0.111344,0.643014,12.0,2.0,16.0,45DBP,33
7.02,0.054629,-0.032893,0.343603,0.664162,0.698546,-0.266312,-0.040596,-0.026015,-0.004455,0.467327,-0.595574,-0.110159,0.644019,12.0,2.0,16.0,45DBP,33
7.03,0.073582,-0.028706,0.284409,0.666276,0.696286,-0.266947,-0.038499,-0.035169,-0.005605,0.466487,-0.595505,-0.109088,0.644875,12.0,2.0,16.0,45DBP,33
7.04,-0.002509,-0.005478,0.231145,0.667988,0.694467,-0.26741,-0.027928,-0.014627,0.00824,0.465794,-0.595467,-0.108229,0.645555,12.0,2.0,16.0,45DBP,33
7.05,-0.123367,0.017552,0.228891,0.669589,0.693133,-0.266866,-0.004016,-0.002429,0.013097,0.464851,-0.59578,-0.107763,0.646023,12.0,2.0,16.0,45DBP,33
7.06,-0.11913,0.030817,0.199599,0.671169,0.69201,-0.265809,-0.000438,-0.044061,-0.013641,0.463781,-0.596278,-0.107464,0.646383,12.0,2.0,16.0,45DBP,33
7.07,-0.122567,0.046512,0.129663,0.672407,0.691205,-0.264773,-0.011289,-0.052686,-0.032483,0.462927,-0.596749,-0.107256,0.646595,12.0,2.0,16.0,45DBP,33
7.08,-0.156049,0.076177,0.093391,0.673312,0.69087,-0.263341,-0.016605,-0.024519,-0.025416,0.462178,-0.597347,-0.107264,0.646577,12.0,2.0,16.0,45DBP,33
7.09,-0.133055,0.098972,0.060251,0.674063,0.690756,-0.261715,-0.013006,-0.01789,-0.015751,0.461543,-0.598019,-0.107312,0.646402,12.0,2.0,16.0,45DBP,33
7.1,-0.062437,0.116205,0.034972,0.674692,0.690672,-0.260314,-0.010996,-0.017759,-0.027132,0.461156,-0.598621,-0.10722,0.646136,12.0,2.0,16.0,45DBP,33
7.11,-0.007309,0.135927,0.010911,0.675184,0.690596,-0.259238,-0.006544,-0.009443,-0.036203,0.461044,-0.599115,-0.106967,0.6458,12.0,2.0,16.0,45DBP,33
7.12,0.014204,0.159453,-0.019327,0.67553,0.690617,-0.258277,-0.001824,-0.015065,-0.017404,0.461164,-0.599578,-0.106617,0.645342,12.0,2.0,16.0,45DBP,33
7.13,0.058755,0.162394,-0.035353,0.675776,0.690702,-0.257405,0.005376,-0.037718,-0.020046,0.461433,-0.600014,-0.106209,0.644812,12.0,2.0,16.0,45DBP,33
7.14,0.10352,0.157434,-0.063433,0.67588,0.690785,-0.256909,0.009407,-0.055882,-0.014393,0.461919,-0.600312,-0.105697,0.644271,12.0,2.0,16.0,45DBP,33
7.15,0.102508,0.144804,-0.096043,0.675808,0.690783,-0.257104,0.010075,-0.049868,2.4e-05,0.4626,-0.600333,-0.105113,0.643858,12.0,2.0,16.0,45DBP,33
7.16,0.076418,0.1389,-0.116735,0.675402,0.691169,-0.257133,0.014341,-0.047462,0.026054,0.463337,-0.60038,-0.104776,0.643339,12.0,2.0,16.0,45DBP,33
7.17,0.019065,0.134021,-0.149237,0.674809,0.691867,-0.256812,0.017223,-0.052936,0.060798,0.464031,-0.600533,-0.104662,0.642714,12.0,2.0,16.0,45DBP,33
7.18,-0.079508,0.13827,-0.193147,0.673937,0.693022,-0.255985,0.013898,-0.054396,0.060428,0.464604,-0.60083,-0.104931,0.641978,12.0,2.0,16.0,45DBP,33
7.19,-0.149004,0.158894,-0.23079,0.672772,0.694671,-0.254578,0.017642,-0.064315,0.031846,0.465083,-0.601303,-0.105571,0.641083,12.0,2.0,16.0,45DBP,33
7.2,-0.14124,0.156215,-0.240744,0.67157,0.696503,-0.252739,0.038742,-0.060181,0.005822,0.465493,-0.601935,-0.106324,0.640067,12.0,2.0,16.0,45DBP,33
7.21,-0.090698,0.14346,-0.22164,0.670562,0.698011,-0.251252,0.059907,-0.037504,0.002426,0.46593,-0.602457,-0.106862,0.639167,12.0,2.0,16.0,45DBP,33
7.22,-0.007383,0.141449,-0.188477,0.669872,0.699029,-0.25026,0.062962,-0.010659,0.003709,0.466422,-0.602836,-0.107043,0.638421,12.0,2.0,16.0,45DBP,33
7.23,0.106501,0.163642,-0.179279,0.669432,0.69963,-0.249759,0.044054,-0.001983,0.00397,0.467092,-0.603085,-0.106813,0.637734,12.0,2.0,16.0,45DBP,33
7.24,0.189599,0.196481,-0.182983,0.669166,0.699982,-0.249483,0.016885,-0.004639,0.020402,0.468022,-0.603312,-0.106175,0.636943,12.0,2.0,16.0,45DBP,33
7.25,0.158517,0.244432,-0.204151,0.669042,0.700393,-0.248664,-0.002904,0.001619,0.023719,0.468982,-0.603785,-0.10541,0.635915,12.0,2.0,16.0,45DBP,33
7.26,0.150236,0.289946,-0.223089,0.668951,0.700982,-0.24724,-0.001257,-0.016916,-0.007689,0.469919,-0.604505,-0.104658,0.634662,12.0,2.0,16.0,45DBP,33
7.27,0.121648,0.296608,-0.247656,0.66893,0.701448,-0.245975,0.015335,-0.050538,0.017139,0.470918,-0.60518,-0.103776,0.633422,12.0,2.0,16.0,45DBP,33
7.28,-0.018383,0.259487,-0.262029,0.667788,0.703069,-0.244445,0.027418,-0.049093,0.034759,0.472027,-0.605815,-0.103757,0.631991,12.0,2.0,16.0,45DBP,33
7.29,-0.114857,0.238045,-0.298309,0.66641,0.705128,-0.242265,0.012683,-0.059254,0.035692,0.47282,-0.606628,-0.104257,0.630534,12.0,2.0,16.0,45DBP,33
7.3,-0.164106,0.234245,-0.353272,0.664623,0.707693,-0.239682,-0.006618,-0.069113,0.03767,0.473563,-0.607537,-0.105158,0.62895,12.0,2.0,16.0,45DBP,33
7.31,-0.19724,0.211951,-0.389062,0.662462,0.710662,-0.236865,-0.017518,-0.053237,0.046664,0.474305,-0.608484,-0.106372,0.62727,12.0,2.0,16.0,45DBP,33
7.32,-0.199896,0.204658,-0.416693,0.66002,0.713856,-0.234057,-0.020891,-0.025899,0.050356,0.475096,-0.609393,-0.107758,0.62555,12.0,2.0,16.0,45DBP,33
7.33,-0.20673,0.221758,-0.45099,0.657343,0.717255,-0.23118,-0.027186,-0.00052,0.044794,0.475967,-0.610307,-0.109248,0.623735,12.0,2.0,16.0,45DBP,33
7.34,-0.176293,0.258096,-0.472847,0.654496,0.720813,-0.228174,-0.024399,0.012051,0.029977,0.476965,-0.611269,-0.110737,0.621764,12.0,2.0,16.0,45DBP,33
7.35,-0.136224,0.286297,-0.498079,0.651556,0.724391,-0.225237,-0.01676,0.013676,0.021608,0.478157,-0.612224,-0.112087,0.619664,12.0,2.0,16.0,45DBP,33
7.36,-0.181021,0.318068,-0.534425,0.648432,0.728149,-0.222115,-0.01214,0.021759,0.002266,0.479475,-0.613248,-0.113443,0.617383,12.0,2.0,16.0,45DBP,33
7.37,-0.203754,0.351836,-0.573835,0.645065,0.732244,-0.218427,-0.006485,-0.002904,-0.034564,0.480765,-0.614461,-0.114999,0.614881,12.0,2.0,16.0,45DBP,33
7.38,-0.105703,0.364512,-0.60579,0.641465,0.736431,-0.214923,0.001677,-0.045528,-0.056562,0.482306,-0.61561,-0.116462,0.612243,12.0,2.0,16.0,45DBP,33
7.39,-0.110131,0.370764,-0.648307,0.637548,0.740719,-0.211819,-0.004705,-0.023343,-0.019444,0.484151,-0.616606,-0.117847,0.609514,12.0,2.0,16.0,45DBP,33
7.4,-0.183369,0.403496,-0.694778,0.63331,0.74537,-0.208189,-0.019159,0.018867,0.007048,0.48596,-0.617761,-0.119486,0.606578,12.0,2.0,16.0,45DBP,33
7.41,-0.151436,0.448758,-0.746172,0.62875,0.750336,-0.20413,-0.035031,-0.000229,-0.001467,0.487866,-0.619061,-0.121234,0.603367,12.0,2.0,16.0,45DBP,33
7.42,-0.068208,0.465583,-0.808476,0.623747,0.755498,-0.200406,-0.048597,-0.032354,0.000516,0.490175,-0.620239,-0.122884,0.599943,12.0,2.0,16.0,45DBP,33
7.43,-0.04162,0.4772,-0.866019,0.618234,0.760898,-0.19703,-0.056314,-0.029361,-0.00376,0.492826,-0.621268,-0.124543,0.596353,12.0,2.0,16.0,45DBP,33
7.44,0.014145,0.485169,-0.893903,0.612344,0.766453,-0.193867,-0.053567,-0.01978,-0.012386,0.495716,-0.622206,-0.126201,0.59262,12.0,2.0,16.0,45DBP,33
7.45,-0.098572,0.508698,-0.943134,0.606166,0.772107,-0.19082,-0.050945,-0.028989,0.022836,0.498722,-0.623082,-0.127903,0.588801,12.0,2.0,16.0,45DBP,33
7.46,-0.143333,0.616129,-1.010439,0.599558,0.77837,-0.186201,-0.049967,-0.005146,-0.015643,0.501524,-0.624497,-0.130012,0.584443,12.0,2.0,16.0,45DBP,33
7.47,0.026185,0.609932,-1.021279,0.59266,0.784631,-0.181956,-0.020822,-0.008523,-0.097753,0.504716,-0.625807,-0.131859,0.579862,12.0,2.0,16.0,45DBP,33
7.48,0.2827,0.574283,-1.015363,0.585622,0.790426,-0.179646,0.013682,0.010843,-0.089015,0.50855,-0.626456,-0.133152,0.575499,12.0,2.0,16.0,45DBP,33
7.49,0.510651,0.564394,-1.00522,0.57854,0.795658,-0.179499,0.030164,0.053509,-0.068166,0.513107,-0.626386,-0.133758,0.571376,12.0,2.0,16.0,45DBP,33
7.5,0.737774,0.555791,-0.992583,0.571494,0.800341,-0.18124,0.033852,0.095853,-0.047734,0.518304,-0.625703,-0.133701,0.567434,12.0,2.0,16.0,45DBP,33
7.51,0.799417,0.538936,-1.022217,0.564364,0.804662,-0.184426,0.026228,0.106395,-0.029304,0.523994,-0.624533,-0.133214,0.563598,12.0,2.0,16.0,45DBP,33
7.52,0.560579,0.518804,-1.107589,0.556709,0.809366,-0.187088,0.016014,0.060034,0.008103,0.529532,-0.623469,-0.133198,0.55959,12.0,2.0,16.0,45DBP,33
7.53,0.229978,0.508974,-1.171434,0.548346,0.814979,-0.187419,0.017237,-0.061561,0.056529,0.534292,-0.623096,-0.134321,0.555195,12.0,2.0,16.0,45DBP,33
7.54,-0.016492,0.496252,-1.215963,0.539462,0.821309,-0.185557,0.017712,-0.154744,0.041682,0.538281,-0.623387,-0.136421,0.550483,12.0,2.0,16.0,45DBP,33
7.55,-0.302415,0.49806,-1.243573,0.53016,0.828229,-0.181567,0.008948,-0.13017,0.028078,0.541507,-0.624329,-0.139392,0.545485,12.0,2.0,16.0,45DBP,33
7.56,-0.411321,0.51912,-1.276276,0.520484,0.835604,-0.175678,0.000177,-0.076235,0.013645,0.544119,-0.625862,-0.143029,0.540161,12.0,2.0,16.0,45DBP,33
7.57,-0.232463,0.513157,-1.28117,0.510549,0.842834,-0.170209,-0.00295,-0.040618,-0.018771,0.546913,-0.627229,-0.14656,0.534781,12.0,2.0,16.0,45DBP,33
7.58,-0.013619,0.508137,-1.264356,0.500556,0.849523,-0.166595,-0.00228,0.028818,-0.031678,0.550317,-0.627972,-0.149513,0.529574,12.0,2.0,16.0,45DBP,33
7.59,0.205603,0.534133,-1.258725,0.490596,0.855662,-0.164797,0.006077,0.096731,-0.021924,0.554343,-0.628134,-0.151818,0.524502,12.0,2.0,16.0,45DBP,33
7.6,0.483663,0.553133,-1.240571,0.480692,0.86122,-0.165032,0.015615,0.106599,-0.016227,0.559103,-0.627664,-0.153369,0.519538,12.0,2.0,16.0,45DBP,33
7.61,0.678244,0.559178,-1.233592,0.470895,0.86614,-0.167512,0.019858,0.065959,-0.032516,0.564606,-0.626482,-0.154158,0.514758,12.0,2.0,16.0,45DBP,33
7.62,0.685472,0.528704,-1.275286,0.460884,0.870833,-0.170982,0.023796,0.023759,-0.05848,0.570405,-0.624939,-0.154793,0.510028,12.0,2.0,16.0,45DBP,33
7.63,0.552769,0.549596,-1.312761,0.450449,0.875681,-0.174005,0.027624,-0.048411,0.012689,0.576084,-0.623498,-0.155717,0.505103,12.0,2.0,16.0,45DBP,33
7.64,0.303217,0.564816,-1.331175,0.439741,0.880855,-0.175276,0.030657,-0.086223,0.031569,0.581196,-0.622623,-0.15717,0.499849,12.0,2.0,16.0,45DBP,33
7.65,0.07348,0.580734,-1.329386,0.428913,0.886353,-0.17439,0.026531,-0.083893,0.037198,0.585544,-0.62246,-0.159212,0.494301,12.0,2.0,16.0,45DBP,33
7.66,0.005467,0.577693,-1.329434,0.41802,0.89198,-0.172134,0.021753,-0.071378,0.029815,0.589371,-0.622747,-0.161614,0.488578,12.0,2.0,16.0,45DBP,33
7.67,0.07666,0.560601,-1.324291,0.40707,0.897416,-0.170114,0.020894,-0.039613,0.006875,0.593191,-0.622938,-0.163985,0.482888,12.0,2.0,16.0,45DBP,33
7.68,0.23878,0.532143,-1.299895,0.396097,0.902478,-0.169233,0.01946,0.00606,-0.003314,0.597275,-0.622726,-0.166121,0.477367,12.0,2.0,16.0,45DBP,33
7.69,0.561232,0.49738,-1.249247,0.38536,0.906824,-0.170787,0.020356,0.017905,-0.007985,0.601975,-0.621694,-0.16764,0.47225,12.0,2.0,16.0,45DBP,33
7.7,0.824577,0.471702,-1.203573,0.374995,0.910295,-0.175331,0.019276,0.030287,0.003669,0.607461,-0.619672,-0.168349,0.467607,12.0,2.0,16.0,45DBP,33
7.71,0.946035,0.456732,-1.202515,0.364801,0.913182,-0.181713,0.014014,0.035183,0.007122,0.613413,-0.617023,-0.168601,0.463228,12.0,2.0,16.0,45DBP,33
7.72,0.856086,0.442522,-1.269373,0.354323,0.915913,-0.188566,0.009721,-0.001515,0.038267,0.619499,-0.614163,-0.16888,0.458808,12.0,2.0,16.0,45DBP,33
7.73,0.300084,0.424379,-1.385446,0.342887,0.919418,-0.192613,0.017099,-0.040679,0.109239,0.624765,-0.612133,-0.170255,0.453844,12.0,2.0,16.0,45DBP,33
7.74,-0.332326,0.470074,-1.420311,0.330655,0.924261,-0.190812,0.035526,-0.119497,0.144212,0.628259,-0.612024,-0.173263,0.447991,12.0,2.0,16.0,45DBP,33
7.75,-0.604576,0.491355,-1.360548,0.318568,0.92974,-0.184656,0.06899,-0.192252,0.07435,0.630286,-0.613429,-0.177136,0.441665,12.0,2.0,16.0,45DBP,33
7.76,-0.683839,0.480681,-1.269613,0.307154,0.93504,-0.177076,0.084814,-0.138379,0.021848,0.631619,-0.615366,-0.181072,0.435425,12.0,2.0,16.0,45DBP,33
7.77,-0.613702,0.496079,-1.181139,0.296472,0.939909,-0.169337,0.075843,0.00902,-0.040013,0.632656,-0.617405,-0.184776,0.429435,12.0,2.0,16.0,45DBP,33
7.78,-0.239084,0.540431,-1.094486,0.286574,0.943983,-0.163617,0.062273,0.084413,-0.121082,0.634193,-0.618862,-0.187621,0.423802,12.0,2.0,16.0,45DBP,33
7.79,0.24619,0.563653,-1.017831,0.277461,0.946959,-0.162124,0.056554,0.094957,-0.175508,0.636965,-0.619006,-0.189129,0.418733,12.0,2.0,16.0,45DBP,33
7.8,0.688346,0.559945,-0.946281,0.269029,0.948887,-0.165034,0.065306,0.105647,-0.173468,0.641004,-0.617746,-0.189402,0.414283,12.0,2.0,16.0,45DBP,33
7.81,1.04988,0.515747,-0.861361,0.2613,0.949825,-0.171915,0.08309,0.115772,-0.141104,0.646088,-0.615181,-0.188666,0.410522,12.0,2.0,16.0,45DBP,33
7.82,1.324364,0.429658,-0.779733,0.254334,0.949823,-0.18207,0.094482,0.124548,-0.104475,0.651887,-0.611491,-0.187199,0.407528,12.0,2.0,16.0,45DBP,33
7.83,1.464696,0.338177,-0.73455,0.247885,0.949068,-0.194479,0.088739,0.124021,-0.074304,0.658072,-0.606956,-0.185377,0.405192,12.0,2.0,16.0,45DBP,33
7.84,1.30706,0.300542,-0.764645,0.241441,0.948059,-0.2071,0.070983,0.105164,-0.071434,0.664147,-0.602242,-0.183724,0.403061,12.0,2.0,16.0,45DBP,33
7.85,0.951656,0.228087,-0.811705,0.234493,0.94754,-0.21721,0.058445,0.013183,-0.032775,0.669394,-0.598275,-0.182926,0.400644,12.0,2.0,16.0,45DBP,33
7.86,0.575965,0.139172,-0.791251,0.227263,0.947714,-0.224029,0.046265,-0.151236,0.036147,0.673462,-0.595343,-0.183172,0.398075,12.0,2.0,16.0,45DBP,33
7.87,0.158617,0.044161,-0.759123,0.220106,0.948617,-0.227329,0.033586,-0.206964,0.031924,0.676179,-0.593561,-0.184447,0.395532,12.0,2.0,16.0,45DBP,33
7.88,-0.155109,-0.015807,-0.756564,0.212936,0.950294,-0.227157,0.021027,-0.13639,0.013396,0.677644,-0.592936,-0.186679,0.392909,12.0,2.0,16.0,45DBP,33
7.89,-0.132822,-0.065767,-0.739289,0.205667,0.952236,-0.225718,0.018393,-0.052135,0.002176,0.678603,-0.592688,-0.189374,0.39033,12.0,2.0,16.0,45DBP,33
7.9,0.120209,-0.071894,-0.683559,0.198694,0.953718,-0.225706,0.015982,0.034167,-0.018389,0.679877,-0.591923,-0.191767,0.388099,12.0,2.0,16.0,45DBP,33
7.91,0.486078,-0.087848,-0.637317,0.192212,0.954336,-0.228685,0.011798,0.143854,-0.052886,0.681959,-0.590128,-0.193407,0.38636,12.0,2.0,16.0,45DBP,33
7.92,0.907938,-0.118796,-0.622443,0.185952,0.953889,-0.235623,0.028831,0.248916,-0.114673,0.68515,-0.586899,-0.194263,0.385202,12.0,2.0,16.0,45DBP,33
7.93,1.104514,-0.123305,-0.621034,0.179701,0.952568,-0.245606,0.070849,0.284951,-0.125915,0.68923,-0.58254,-0.194535,0.384403,12.0,2.0,16.0,45DBP,33
7.94,1.075751,-0.21611,-0.543483,0.173648,0.950843,-0.256405,0.092099,0.114113,0.00085,0.693404,-0.577828,-0.194712,0.383918,12.0,2.0,16.0,45DBP,33
7.95,0.834831,-0.335185,-0.430169,0.16833,0.949119,-0.266155,0.058339,-0.140311,0.097744,0.696872,-0.57343,-0.195194,0.383989,12.0,2.0,16.0,45DBP,33
7.96,0.252472,-0.359351,-0.417716,0.163424,0.9483,-0.272065,-0.02051,-0.239819,0.106782,0.698922,-0.57038,-0.196555,0.38411,12.0,2.0,16.0,45DBP,33
7.97,-0.274254,-0.305873,-0.498127,0.158178,0.949118,-0.272313,-0.093481,-0.226462,0.103764,0.699383,-0.569394,-0.199083,0.383432,12.0,2.0,16.0,45DBP,33
7.98,-0.473466,-0.226795,-0.530115,0.152515,0.950983,-0.269015,-0.125431,-0.212275,0.106494,0.699004,-0.569732,-0.202234,0.381969,12.0,2.0,16.0,45DBP,33
7.99,-0.46935,-0.201492,-0.509815,0.146937,0.953066,-0.264715,-0.110255,-0.096972,0.070883,0.698403,-0.570482,-0.205408,0.38025,12.0,2.0,16.0,45DBP,33
8.0,-0.262104,-0.153627,-0.475997,0.141745,0.95479,-0.26131,-0.056464,0.116315,0.033176,0.698068,-0.570975,-0.208164,0.378624,12.0,2.0,16.0,45DBP,33
8.01,0.273324,-0.148544,-0.463436,0.13686,0.955486,-0.261371,0.009319,0.264454,-0.059048,0.69876,-0.570256,-0.210053,0.377386,12.0,2.0,16.0,45DBP,33
8.02,0.953543,-0.158512,-0.424181,0.132199,0.954447,-0.267497,0.078235,0.260534,-0.160375,0.701208,-0.567333,-0.210678,0.376902,12.0,2.0,16.0,45DBP,33
8.03,1.339195,-0.258152,-0.371517,0.127843,0.951759,-0.278946,0.138728,0.215737,-0.193909,0.705057,-0.562402,-0.210311,0.377315,12.0,2.0,16.0,45DBP,33
8.04,1.368263,-0.406982,-0.32956,0.123554,0.948287,-0.292381,0.188046,0.184068,-0.145638,0.709207,-0.556561,-0.209878,0.378439,12.0,2.0,16.0,45DBP,33
8.05,1.150135,-0.527097,-0.274274,0.119272,0.944845,-0.305026,0.200949,0.090387,-0.068585,0.712832,-0.550822,-0.209957,0.379978,12.0,2.0,16.0,45DBP,33
8.06,0.798567,-0.688613,-0.181955,0.115227,0.942064,-0.315019,0.148643,-0.103426,0.074312,0.715323,-0.54591,-0.210886,0.381867,12.0,2.0,16.0,45DBP,33
8.07,0.310659,-0.797136,-0.14733,0.111373,0.940434,-0.321217,0.037812,-0.25774,0.197376,0.716375,-0.542277,-0.212903,0.383946,12.0,2.0,16.0,45DBP,33
8.08,-0.289942,-0.793623,-0.245647,0.106983,0.940623,-0.322155,-0.10535,-0.230479,0.216732,0.715897,-0.5405,-0.216292,0.385446,12.0,2.0,16.0,45DBP,33
8.09,-0.612144,-0.699533,-0.374416,0.101633,0.942486,-0.318418,-0.215524,-0.13136,0.164228,0.714384,-0.540428,-0.220746,0.385831,12.0,2.0,16.0,45DBP,33
8.1,-0.504108,-0.581893,-0.418419,0.095787,0.944715,-0.31359,-0.229454,-0.070508,0.079962,0.712882,-0.540804,-0.225247,0.385479,12.0,2.0,16.0,45DBP,33
8.11,-0.25521,-0.562721,-0.40477,0.090113,0.946294,-0.310495,-0.165827,0.014766,0.012689,0.712004,-0.540611,-0.229113,0.385094,12.0,2.0,16.0,45DBP,33
8.12,0.027581,-0.6151,-0.406958,0.084403,0.947016,-0.309899,-0.072959,0.125174,-0.029335,0.711797,-0.53942,-0.232544,0.385091,12.0,2.0,16.0,45DBP,33
8.13,0.316451,-0.68566,-0.376039,0.078638,0.946786,-0.312108,0.0185,0.149145,-0.083644,0.71227,-0.53707,-0.235587,0.385649,12.0,2.0,16.0,45DBP,33
8.14,0.494447,-0.76775,-0.328769,0.073001,0.945745,-0.316604,0.090375,0.099833,-0.11522,0.713204,-0.533758,-0.238328,0.386836,12.0,2.0,16.0,45DBP,33
8.15,0.426331,-0.840501,-0.303735,0.067437,0.944438,-0.321698,0.127174,0.061727,-0.115894,0.714122,-0.530104,-0.241123,0.388432,12.0,2.0,16.0,45DBP,33
8.16,0.05999,-0.896241,-0.314861,0.061716,0.9438,-0.324702,0.124838,0.025209,-0.077504,0.714352,-0.527116,-0.244536,0.389939,12.0,2.0,16.0,45DBP,33
8.17,-0.378121,-0.922216,-0.28875,0.055857,0.944515,-0.323683,0.079,-0.073284,0.035963,0.713392,-0.525543,-0.248924,0.391041,12.0,2.0,16.0,45DBP,33
8.18,-0.699225,-0.943276,-0.232143,0.050387,0.9464,-0.319042,-0.002826,-0.199208,0.145916,0.711298,-0.52532,-0.254005,0.391888,12.0,2.0,16.0,45DBP,33
8.19,-0.955951,-0.876263,-0.228489,0.045362,0.949152,-0.311532,-0.113767,-0.207972,0.178582,0.708356,-0.526208,-0.259497,0.392425,12.0,2.0,16.0,45DBP,33
8.2,-1.024417,-0.710234,-0.292505,0.040437,0.952361,-0.302281,-0.206208,-0.102507,0.120717,0.705156,-0.527863,-0.264991,0.392295,12.0,2.0,16.0,45DBP,33
8.21,-0.854284,-0.555242,-0.36465,0.035389,0.955335,-0.293399,-0.223286,0.01691,0.016071,0.702435,-0.529547,-0.269964,0.391516,12.0,2.0,16.0,45DBP,33
8.22,-0.493552,-0.479696,-0.376232,0.030307,0.957441,-0.287032,-0.146137,0.100252,-0.051591,0.700658,-0.530428,-0.274098,0.390633,12.0,2.0,16.0,45DBP,33
8.23,-0.180012,-0.477426,-0.334159,0.025489,0.958484,-0.284004,-0.02677,0.150448,-0.062081,0.69983,-0.530155,-0.277369,0.39018,12.0,2.0,16.0,45DBP,33
8.24,0.034037,-0.504874,-0.244581,0.021293,0.958752,-0.283446,0.061394,0.140995,-0.036638,0.699527,-0.529033,-0.280002,0.390365,12.0,2.0,16.0,45DBP,33
8.25,0.197635,-0.544328,-0.153173,0.017914,0.958452,-0.284691,0.100281,0.060851,-0.017967,0.69949,-0.527314,-0.282124,0.391228,12.0,2.0,16.0,45DBP,33
