secondsElapsed,wristMotion_rotationRateX,wristMotion_rotationRateY,wristMotion_rotationRateZ,wristMotion_gravityX,wristMotion_gravityY,wristMotion_gravityZ,wristMotion_accelerationX,wristMotion_accelerationY,wristMotion_accelerationZ,wristMotion_quaternionW,wristMotion_quaternionX,wristMotion_quaternionY,wristMotion_quaternionZ,weight,set,reps,activity,activityEncoded
0.0,,,,,,,,,,,,,,4.0,2.0,15.0,SACLR,14
0.01,,,,,,,,,,,,,,4.0,2.0,15.0,SACLR,14
0.02,,,,,,,,,,,,,,4.0,2.0,15.0,SACLR,14
0.03,,,,,,,,,,,,,,4.0,2.0,15.0,SACLR,14
0.04,,,,,,,,,,,,,,4.0,2.0,15.0,SACLR,14
0.05,,,,,,,,,,,,,,4.0,2.0,15.0,SACLR,14
0.06,,,,,,,,,,,,,,4.0,2.0,15.0,SACLR,14
0.07,,,,,,,,,,,,,,4.0,2.0,15.0,SACLR,14
0.08,,,,,,,,,,,,,,4.0,2.0,15.0,SACLR,14
0.09,,,,,,,,,,,,,,4.0,2.0,15.0,SACLR,14
0.1,,,,,,,,,,,,,,4.0,2.0,15.0,SACLR,14
0.11,,,,,,,,,,,,,,4.0,2.0,15.0,SACLR,14
0.12,,,,,,,,,,,,,,4.0,2.0,15.0,SACLR,14
0.13,,,,,,,,,,,,,,4.0,2.0,15.0,SACLR,14
0.14,,,,,,,,,,,,,,4.0,2.0,15.0,SACLR,14
0.15,,,,,,,,,,,,,,4.0,2.0,15.0,SACLR,14
0.16,,,,,,,,,,,,,,4.0,2.0,15.0,SACLR,14
0.17,,,,,,,,,,,,,,4.0,2.0,15.0,SACLR,14
0.18,,,,,,,,,,,,,,4.0,2.0,15.0,SACLR,14
0.19,,,,,,,,,,,,,,4.0,2.0,15.0,SACLR,14
0.2,,,,,,,,,,,,,,4.0,2.0,15.0,SACLR,14
0.21,,,,,,,,,,,,,,4.0,2.0,15.0,SACLR,14
0.22,,,,,,,,,,,,,,4.0,2.0,15.0,SACLR,14
0.23,,,,,,,,,,,,,,4.0,2.0,15.0,SACLR,14
0.24,,,,,,,,,,,,,,4.0,2.0,15.0,SACLR,14
0.25,,,,,,,,,,,,,,4.0,2.0,15.0,SACLR,14
0.26,,,,,,,,,,,,,,4.0,2.0,15.0,SACLR,14
0.27,-0.186181,0.034772,0.121853,0.087952,0.076988,-0.993145,0.012558,-0.016792,0.027371,0.998285,-0.038588,0.044027,0.000629,4.0,2.0,15.0,SACLR,14
0.28,-0.141287,0.045633,0.146362,0.088456,0.078487,-0.992983,0.010725,-0.011456,0.027971,0.998243,-0.039371,0.044254,0.001318,4.0,2.0,15.0,SACLR,14
0.29,-0.089414,0.044891,0.179775,0.089053,0.079478,-0.992851,0.011106,-0.004787,0.024925,0.998209,-0.039906,0.04452,0.00215,4.0,2.0,15.0,SACLR,14
0.3,-0.035238,0.043046,0.186275,0.089632,0.079918,-0.992763,0.017042,-0.001443,0.015041,0.998184,-0.04017,0.044773,0.003089,4.0,2.0,15.0,SACLR,14
0.31,0.003934,0.054853,0.161798,0.09026,0.079901,-0.992708,0.026409,0.009516,0.004488,0.998167,-0.040202,0.045053,0.003961,4.0,2.0,15.0,SACLR,14
0.32,0.011814,0.071553,0.127465,0.091005,0.079679,-0.992658,0.023664,0.001314,-0.009677,0.998152,-0.040126,0.045399,0.004677,4.0,2.0,15.0,SACLR,14
0.33,-0.009092,0.082173,0.090781,0.091869,0.079569,-0.992587,0.017551,-0.018183,-0.015729,0.998131,-0.040098,0.045812,0.005206,4.0,2.0,15.0,SACLR,14
0.34,-0.038469,0.08991,0.065253,0.092981,0.079374,-0.992499,0.012778,-0.024137,-0.017007,0.998107,-0.040022,0.046354,0.005595,4.0,2.0,15.0,SACLR,14
0.35,-0.062462,0.08684,0.041263,0.09408,0.079547,-0.992382,0.017751,-0.027942,-0.011677,0.998076,-0.040125,0.046895,0.005858,4.0,2.0,15.0,SACLR,14
0.36,-0.082629,0.085239,0.021326,0.095076,0.080087,-0.992243,0.022447,-0.023111,-0.002019,0.998041,-0.040408,0.047388,0.006011,4.0,2.0,15.0,SACLR,14
0.37,-0.10121,0.081594,0.018474,0.096034,0.080943,-0.992082,0.023442,-0.013377,0.003419,0.998,-0.040846,0.047863,0.006124,4.0,2.0,15.0,SACLR,14
0.38,-0.141053,0.069869,-0.019238,0.096955,0.082124,-0.991895,0.026199,-0.007494,0.010053,0.997953,-0.041444,0.048321,0.006155,4.0,2.0,15.0,SACLR,14
0.39,-0.127972,0.085749,-0.04587,0.097977,0.083629,-0.991669,0.018906,-0.014171,0.021317,0.997897,-0.042195,0.048838,0.005984,4.0,2.0,15.0,SACLR,14
0.4,-0.103412,0.087052,-0.062214,0.099003,0.084747,-0.991472,0.016628,-0.016342,0.023988,0.997849,-0.04275,0.049362,0.005753,4.0,2.0,15.0,SACLR,14
0.41,-0.099907,0.109969,-0.101973,0.100033,0.085477,-0.991306,0.031223,0.001361,0.02219,0.99781,-0.0431,0.049895,0.005365,4.0,2.0,15.0,SACLR,14
0.42,-0.10347,0.1718,-0.152627,0.101349,0.086172,-0.991112,0.018752,-0.013235,0.028938,0.997764,-0.043423,0.050582,0.004743,4.0,2.0,15.0,SACLR,14
0.43,-0.104394,0.27207,-0.189256,0.103564,0.08689,-0.99082,-0.001422,-0.055686,0.03237,0.997695,-0.043747,0.051731,0.003886,4.0,2.0,15.0,SACLR,14
0.44,-0.430152,0.301563,-0.296606,0.106554,0.0887,-0.990343,-0.016451,-0.093018,0.046983,0.997579,-0.044607,0.053281,0.002792,4.0,2.0,15.0,SACLR,14
0.45,-0.976396,0.628377,-0.501433,0.111128,0.097297,-0.989032,-0.024382,-0.176429,0.063861,0.997254,-0.04883,0.055675,0.000851,4.0,2.0,15.0,SACLR,14
0.46,-1.617211,0.851485,0.237076,0.117821,0.109081,-0.987026,-0.120583,-0.428249,0.137477,0.996751,-0.054686,0.059132,-0.00054,4.0,2.0,15.0,SACLR,14
0.47,-2.467217,-0.683189,1.109584,0.118765,0.130298,-0.984336,0.062692,-0.361545,0.128593,0.996067,-0.065664,0.059332,0.00433,4.0,2.0,15.0,SACLR,14
0.48,-1.798105,-0.698256,0.399696,0.112768,0.150314,-0.982186,0.554803,-0.49884,0.092293,0.995495,-0.076008,0.055945,0.009092,4.0,2.0,15.0,SACLR,14
0.49,-1.314977,-0.318071,-0.195646,0.107891,0.165567,-0.980279,0.269199,-0.134332,0.13273,0.995007,-0.083736,0.053374,0.010012,4.0,2.0,15.0,SACLR,14
0.5,-0.685868,0.05989,-0.09009,0.106342,0.175612,-0.978699,0.036694,0.215334,0.201294,0.994616,-0.08878,0.052616,0.009435,4.0,2.0,15.0,SACLR,14
0.51,-0.149313,0.386686,0.320809,0.10876,0.179405,-0.977745,-0.059978,0.207512,0.163307,0.99437,-0.090753,0.053772,0.010039,4.0,2.0,15.0,SACLR,14
0.52,0.093023,0.613767,0.510751,0.114496,0.178994,-0.977165,-0.099345,0.097724,0.1287,0.994202,-0.090702,0.056486,0.012016,4.0,2.0,15.0,SACLR,14
0.53,0.083484,0.701429,0.416032,0.121825,0.177436,-0.976563,-0.076827,0.030571,0.113785,0.994024,-0.090101,0.060004,0.014066,4.0,2.0,15.0,SACLR,14
0.54,-0.100759,0.694348,0.294307,0.129296,0.176988,-0.975683,-0.009774,-0.020845,0.111761,0.993781,-0.090041,0.063648,0.015503,4.0,2.0,15.0,SACLR,14
0.55,-0.382673,0.649167,0.273652,0.136321,0.178945,-0.974369,0.054475,-0.077597,0.118458,0.993432,-0.09119,0.067081,0.016671,4.0,2.0,15.0,SACLR,14
0.56,-0.709898,0.636435,0.283273,0.143059,0.183893,-0.97248,0.065574,-0.127191,0.124397,0.992934,-0.093872,0.070342,0.017946,4.0,2.0,15.0,SACLR,14
0.57,-0.999039,0.663551,0.274311,0.149899,0.191838,-0.969912,0.030368,-0.15659,0.133577,0.992261,-0.098101,0.073623,0.019333,4.0,2.0,15.0,SACLR,14
0.58,-1.131986,0.654054,0.258695,0.156817,0.201885,-0.966773,-0.017444,-0.164212,0.135932,0.991442,-0.103422,0.076924,0.020722,4.0,2.0,15.0,SACLR,14
0.59,-1.1309,0.69095,0.249102,0.163813,0.212487,-0.963335,-0.033076,-0.130776,0.111208,0.990545,-0.109046,0.080258,0.022073,4.0,2.0,15.0,SACLR,14
0.6,-1.040834,0.76932,0.23788,0.171359,0.222589,-0.959735,-0.018572,-0.042322,0.109164,0.989608,-0.11444,0.083882,0.023322,4.0,2.0,15.0,SACLR,14
0.61,-0.896007,0.849288,0.226576,0.179644,0.231484,-0.956108,-0.012728,0.044288,0.119332,0.988665,-0.11924,0.087907,0.02442,4.0,2.0,15.0,SACLR,14
0.62,-0.768902,0.929745,0.22187,0.188684,0.238994,-0.952513,-0.014306,0.089543,0.121809,0.987731,-0.123353,0.092346,0.025365,4.0,2.0,15.0,SACLR,14
0.63,-0.699975,1.0091,0.221993,0.198468,0.245528,-0.948855,-0.024991,0.090195,0.124026,0.986783,-0.126989,0.097191,0.026205,4.0,2.0,15.0,SACLR,14
0.64,-0.701949,1.063748,0.22199,0.208873,0.251682,-0.945002,-0.036403,0.062573,0.123102,0.985785,-0.130457,0.102372,0.02698,4.0,2.0,15.0,SACLR,14
0.65,-0.769076,1.085926,0.216839,0.21961,0.258119,-0.940822,-0.037344,0.024581,0.10783,0.984704,-0.1341,0.107732,0.027746,4.0,2.0,15.0,SACLR,14
0.66,-0.883161,1.085471,0.198164,0.230373,0.265403,-0.93621,-0.030056,-0.00376,0.082496,0.983511,-0.138203,0.113114,0.028489,4.0,2.0,15.0,SACLR,14
0.67,-0.988847,1.072626,0.199921,0.240996,0.273698,-0.931134,-0.019179,-0.020402,0.064435,0.982197,-0.142856,0.118428,0.029248,4.0,2.0,15.0,SACLR,14
0.68,-1.074218,1.05501,0.218412,0.251468,0.282805,-0.925627,-0.004291,-0.028517,0.040632,0.980768,-0.147973,0.123655,0.030121,4.0,2.0,15.0,SACLR,14
0.69,-1.128726,1.044409,0.227279,0.261814,0.292435,-0.919747,0.00494,-0.026536,0.019692,0.979237,-0.153413,0.128806,0.031129,4.0,2.0,15.0,SACLR,14
0.7,-1.140333,1.026786,0.220448,0.271999,0.302286,-0.913586,0.009144,-0.012309,-0.001209,0.977629,-0.159008,0.133879,0.032172,4.0,2.0,15.0,SACLR,14
0.71,-1.089631,1.006474,0.199206,0.281917,0.31191,-0.907323,0.011906,0.019724,-0.026988,0.975993,-0.164506,0.138839,0.033147,4.0,2.0,15.0,SACLR,14
0.72,-0.95847,0.980973,0.172774,0.291508,0.320696,-0.901209,0.014385,0.065581,-0.054968,0.974398,-0.169566,0.143676,0.033947,4.0,2.0,15.0,SACLR,14
0.73,-0.7572,0.974763,0.147293,0.300815,0.327951,-0.895522,0.024823,0.12757,-0.094499,0.972918,-0.173804,0.148429,0.03451,4.0,2.0,15.0,SACLR,14
0.74,-0.56225,0.976914,0.144597,0.310047,0.333421,-0.890338,0.041424,0.196913,-0.128064,0.971573,-0.177083,0.153208,0.034847,4.0,2.0,15.0,SACLR,14
0.75,-0.398225,0.932912,0.150771,0.319073,0.337219,-0.885706,0.063174,0.240051,-0.147985,0.970372,-0.179467,0.15792,0.035082,4.0,2.0,15.0,SACLR,14
0.76,-0.281083,0.841992,0.163532,0.327478,0.339679,-0.881689,0.078924,0.239605,-0.170725,0.969328,-0.181127,0.162322,0.03531,4.0,2.0,15.0,SACLR,14
0.77,-0.230066,0.761097,0.15624,0.33508,0.341365,-0.878175,0.085116,0.203862,-0.177993,0.968412,-0.18236,0.166306,0.035578,4.0,2.0,15.0,SACLR,14
0.78,-0.248481,0.688158,0.102969,0.341892,0.342986,-0.874911,0.083767,0.162919,-0.169904,0.967563,-0.18352,0.169896,0.035753,4.0,2.0,15.0,SACLR,14
0.79,-0.315051,0.620126,0.041995,0.347877,0.345189,-0.87168,0.077904,0.127177,-0.142847,0.966728,-0.184931,0.173091,0.035723,4.0,2.0,15.0,SACLR,14
0.8,-0.41514,0.537087,0.004997,0.353003,0.348289,-0.86838,0.078927,0.083657,-0.115003,0.965879,-0.186778,0.175852,0.035602,4.0,2.0,15.0,SACLR,14
0.81,-0.544422,0.452426,-0.023044,0.357271,0.352493,-0.864931,0.081495,0.029373,-0.092115,0.964989,-0.189198,0.178153,0.035518,4.0,2.0,15.0,SACLR,14
0.82,-0.69392,0.370853,-0.052887,0.360693,0.357983,-0.861249,0.074778,-0.022442,-0.07262,0.964035,-0.192297,0.179994,0.035497,4.0,2.0,15.0,SACLR,14
0.83,-0.85358,0.297586,-0.083295,0.363305,0.364899,-0.857238,0.065421,-0.061402,-0.06482,0.962993,-0.196155,0.181395,0.035537,4.0,2.0,15.0,SACLR,14
0.84,-1.003209,0.218895,-0.093667,0.365189,0.373195,-0.852856,0.06279,-0.074535,-0.066746,0.961849,-0.200767,0.182387,0.035691,4.0,2.0,15.0,SACLR,14
0.85,-1.100864,0.126887,-0.074082,0.366342,0.382506,-0.848223,0.06185,-0.070891,-0.072111,0.96063,-0.205961,0.182944,0.036074,4.0,2.0,15.0,SACLR,14
0.86,-1.129243,0.050395,-0.048427,0.366823,0.392199,-0.843576,0.060377,-0.063022,-0.086478,0.959396,-0.211405,0.183085,0.036712,4.0,2.0,15.0,SACLR,14
0.87,-1.126748,-0.015814,-0.020133,0.366836,0.401854,-0.839014,0.061691,-0.04164,-0.100073,0.958173,-0.216869,0.182923,0.037561,4.0,2.0,15.0,SACLR,14
0.88,-1.092396,-0.086227,0.006906,0.366381,0.411196,-0.834675,0.057005,-0.023165,-0.098964,0.957,-0.222194,0.182461,0.038594,4.0,2.0,15.0,SACLR,14
0.89,-1.060597,-0.1494,0.044413,0.365493,0.420067,-0.830637,0.055237,-0.024453,-0.101339,0.955893,-0.227297,0.181707,0.039833,4.0,2.0,15.0,SACLR,14
0.9,-1.058853,-0.212706,0.086697,0.364272,0.428617,-0.826797,0.048692,-0.048505,-0.084733,0.954825,-0.232267,0.180703,0.041314,4.0,2.0,15.0,SACLR,14
0.91,-1.052058,-0.291625,0.115976,0.362642,0.436993,-0.823121,0.040571,-0.076412,-0.066375,0.953786,-0.23718,0.179402,0.043048,4.0,2.0,15.0,SACLR,14
0.92,-1.03627,-0.353935,0.130337,0.360524,0.445141,-0.819678,0.03187,-0.100567,-0.046091,0.952795,-0.241987,0.177774,0.044961,4.0,2.0,15.0,SACLR,14
0.93,-1.002795,-0.376919,0.145165,0.358134,0.453014,-0.816406,0.022069,-0.099423,-0.018281,0.951838,-0.246652,0.175955,0.046974,4.0,2.0,15.0,SACLR,14
0.94,-0.955726,-0.370274,0.160975,0.35578,0.460474,-0.813255,0.010873,-0.085078,0.00251,0.950906,-0.251104,0.174125,0.049039,4.0,2.0,15.0,SACLR,14
0.95,-0.907151,-0.357553,0.165988,0.353592,0.46746,-0.810219,0.007675,-0.07476,0.013878,0.95,-0.255301,0.172372,0.051086,4.0,2.0,15.0,SACLR,14
0.96,-0.895801,-0.350734,0.160504,0.351507,0.474154,-0.80723,0.012919,-0.062472,0.018259,0.949103,-0.259337,0.170672,0.05309,4.0,2.0,15.0,SACLR,14
0.97,-0.908706,-0.355432,0.150235,0.349403,0.480881,-0.804158,0.019005,-0.061555,0.029042,0.948182,-0.263391,0.168956,0.055054,4.0,2.0,15.0,SACLR,14
0.98,-0.943128,-0.355388,0.1455,0.347265,0.487789,-0.800918,0.01829,-0.074031,0.037109,0.947211,-0.267551,0.167205,0.057013,4.0,2.0,15.0,SACLR,14
0.99,-1.01383,-0.32926,0.132864,0.345214,0.495108,-0.797305,0.012345,-0.087546,0.055148,0.946138,-0.271959,0.165487,0.058956,4.0,2.0,15.0,SACLR,14
1.0,-1.089244,-0.29746,0.109646,0.343315,0.503072,-0.793129,-0.001641,-0.096822,0.08297,0.944915,-0.276748,0.163848,0.060832,4.0,2.0,15.0,SACLR,14
1.01,-1.174185,-0.250392,0.070032,0.341593,0.511704,-0.788336,-0.019465,-0.104753,0.115911,0.943532,-0.281928,0.162323,0.062566,4.0,2.0,15.0,SACLR,14
1.02,-1.281814,-0.177003,0.029406,0.340157,0.521191,-0.782722,-0.041161,-0.104489,0.155326,0.94194,-0.287614,0.160988,0.064103,4.0,2.0,15.0,SACLR,14
1.03,-1.389426,-0.068171,-0.004005,0.33926,0.531605,-0.776079,-0.07922,-0.104633,0.215029,0.940086,-0.293874,0.159994,0.065408,4.0,2.0,15.0,SACLR,14
1.04,-1.492998,0.038033,-0.022783,0.339057,0.54279,-0.768388,-0.099906,-0.109013,0.229356,0.93796,-0.300651,0.159421,0.066515,4.0,2.0,15.0,SACLR,14
1.05,-1.58607,0.141105,-0.030036,0.339587,0.554671,-0.759619,-0.100635,-0.109389,0.22048,0.935552,-0.307927,0.159285,0.067464,4.0,2.0,15.0,SACLR,14
1.06,-1.688312,0.213892,-0.037581,0.340734,0.567173,-0.74981,-0.121328,-0.134403,0.240197,0.932864,-0.315679,0.159504,0.068335,4.0,2.0,15.0,SACLR,14
1.07,-1.767783,0.261164,-0.01792,0.342356,0.580154,-0.739063,-0.134333,-0.145874,0.233356,0.929916,-0.323844,0.159981,0.069197,4.0,2.0,15.0,SACLR,14
1.08,-1.832943,0.31218,0.015075,0.344456,0.593386,-0.727491,-0.149571,-0.157168,0.222455,0.926727,-0.332316,0.160688,0.070157,4.0,2.0,15.0,SACLR,14
1.09,-1.892278,0.361394,0.063929,0.347117,0.606735,-0.71511,-0.167247,-0.166977,0.22129,0.923297,-0.341046,0.161655,0.07126,4.0,2.0,15.0,SACLR,14
1.1,-1.926072,0.396566,0.122119,0.350396,0.619977,-0.702034,-0.184685,-0.169477,0.220649,0.919646,-0.349929,0.162889,0.072579,4.0,2.0,15.0,SACLR,14
1.11,-1.941064,0.420478,0.16967,0.354153,0.632918,-0.68847,-0.191799,-0.170119,0.217171,0.915829,-0.358841,0.164312,0.074112,4.0,2.0,15.0,SACLR,14
1.12,-1.949291,0.42335,0.206749,0.358253,0.645532,-0.674495,-0.196876,-0.172646,0.220912,0.911867,-0.367751,0.165867,0.075807,4.0,2.0,15.0,SACLR,14
1.13,-1.928681,0.399648,0.249211,0.362487,0.657695,-0.660334,-0.201751,-0.181026,0.23237,0.907816,-0.376568,0.167421,0.077691,4.0,2.0,15.0,SACLR,14
1.14,-1.911566,0.366599,0.291329,0.366788,0.669279,-0.646168,-0.206708,-0.194334,0.244037,0.903724,-0.385203,0.168922,0.07979,4.0,2.0,15.0,SACLR,14
1.15,-1.911018,0.323592,0.360965,0.3712,0.680308,-0.631974,-0.219649,-0.21609,0.258408,0.899571,-0.393697,0.17034,0.082212,4.0,2.0,15.0,SACLR,14
1.16,-1.947914,0.283209,0.446875,0.375875,0.690855,-0.617607,-0.242529,-0.248289,0.27613,0.895303,-0.402135,0.17171,0.085059,4.0,2.0,15.0,SACLR,14
1.17,-2.06655,0.250627,0.537433,0.380934,0.701235,-0.602627,-0.272582,-0.290453,0.284069,0.890781,-0.410787,0.173035,0.088441,4.0,2.0,15.0,SACLR,14
1.18,-2.282053,0.199972,0.669783,0.386541,0.711837,-0.586408,-0.306646,-0.352096,0.306729,0.8858,-0.420014,0.174311,0.092534,4.0,2.0,15.0,SACLR,14
1.19,-2.585398,0.105991,0.821246,0.392788,0.722969,-0.568359,-0.346814,-0.435601,0.327118,0.880141,-0.43017,0.175425,0.097625,4.0,2.0,15.0,SACLR,14
1.2,-2.962324,-0.011476,0.978695,0.399617,0.734881,-0.547956,-0.386845,-0.522082,0.33003,0.873603,-0.441561,0.176199,0.103904,4.0,2.0,15.0,SACLR,14
1.21,-3.40342,-0.097518,1.118561,0.407109,0.747726,-0.524565,-0.431142,-0.591903,0.32887,0.86595,-0.454457,0.176597,0.11141,4.0,2.0,15.0,SACLR,14
1.22,-3.87249,-0.142537,1.238178,0.415399,0.761503,-0.49755,-0.470911,-0.634001,0.343696,0.856957,-0.469049,0.176687,0.120002,4.0,2.0,15.0,SACLR,14
1.23,-4.320869,-0.156199,1.333526,0.424612,0.775875,-0.466607,-0.493933,-0.642101,0.359276,0.846484,-0.485305,0.176567,0.129495,4.0,2.0,15.0,SACLR,14
1.24,-4.703355,-0.18434,1.405297,0.434622,0.790307,-0.431877,-0.489188,-0.607843,0.363121,0.834522,-0.503003,0.176208,0.139684,4.0,2.0,15.0,SACLR,14
1.25,-4.947923,-0.238685,1.451334,0.445169,0.804035,-0.394148,-0.461328,-0.544208,0.350523,0.821251,-0.521658,0.175495,0.150402,4.0,2.0,15.0,SACLR,14
1.26,-4.945916,-0.340072,1.509393,0.456123,0.815978,-0.35515,-0.41845,-0.464446,0.332537,0.807142,-0.540379,0.174399,0.161548,4.0,2.0,15.0,SACLR,14
1.27,-4.705259,-0.469762,1.571334,0.467412,0.825165,-0.317222,-0.37174,-0.376816,0.304648,0.792888,-0.558099,0.17296,0.173031,4.0,2.0,15.0,SACLR,14
1.28,-4.277046,-0.597184,1.654678,0.479173,0.831045,-0.282414,-0.334825,-0.260259,0.268117,0.779143,-0.573952,0.171383,0.18478,4.0,2.0,15.0,SACLR,14
1.29,-3.76068,-0.678769,1.760085,0.491701,0.8335,-0.252008,-0.314349,-0.132908,0.228036,0.766365,-0.58744,0.17003,0.196693,4.0,2.0,15.0,SACLR,14
1.3,-3.294281,-0.657446,1.879129,0.505267,0.832848,-0.225985,-0.317279,-0.034493,0.196093,0.754635,-0.598621,0.169293,0.208612,4.0,2.0,15.0,SACLR,14
1.31,-3.040257,-0.569166,1.999159,0.520111,0.829638,-0.202939,-0.340058,0.006024,0.17088,0.743563,-0.608118,0.169478,0.220415,4.0,2.0,15.0,SACLR,14
1.32,-2.942167,-0.458167,2.129575,0.536181,0.82446,-0.181038,-0.383059,-0.027585,0.149758,0.732537,-0.616779,0.170484,0.232181,4.0,2.0,15.0,SACLR,14
1.33,-3.278086,-0.34946,2.18503,0.553337,0.817851,-0.157919,-0.41906,-0.136363,0.158179,0.72072,-0.625639,0.172093,0.24397,4.0,2.0,15.0,SACLR,14
1.34,-3.991636,-0.231085,2.098712,0.570449,0.810983,-0.129975,-0.453064,-0.226496,0.174699,0.706826,-0.636377,0.173311,0.255703,4.0,2.0,15.0,SACLR,14
1.35,-4.698828,-0.172011,1.94873,0.586589,0.804184,-0.095919,-0.448589,-0.265183,0.174379,0.690334,-0.649588,0.173426,0.267204,4.0,2.0,15.0,SACLR,14
1.36,-5.174356,-0.1734,1.824922,0.601565,0.796777,-0.057142,-0.399966,-0.25184,0.214705,0.671578,-0.664646,0.172263,0.278486,4.0,2.0,15.0,SACLR,14
1.37,-5.245544,-0.235184,1.749334,0.615655,0.787837,-0.016792,-0.320047,-0.12939,0.219902,0.651576,-0.680183,0.170162,0.28956,4.0,2.0,15.0,SACLR,14
1.38,-4.911987,-0.38329,1.721502,0.629273,0.776892,0.02133,-0.225342,0.106638,0.184755,0.631694,-0.694669,0.167631,0.300495,4.0,2.0,15.0,SACLR,14
1.39,-4.224566,-0.591337,1.783295,0.642951,0.764026,0.053649,-0.138389,0.375958,0.131638,0.613319,-0.706771,0.165224,0.311473,4.0,2.0,15.0,SACLR,14
1.4,-3.321285,-0.759682,1.902384,0.657367,0.749533,0.077899,-0.076038,0.579156,0.080029,0.597485,-0.715641,0.163731,0.322587,4.0,2.0,15.0,SACLR,14
1.41,-2.461237,-0.809051,1.973109,0.672532,0.734076,0.093981,-0.052812,0.685205,0.041532,0.584584,-0.721252,0.163664,0.333573,4.0,2.0,15.0,SACLR,14
1.42,-1.933812,-0.7795,1.913685,0.687537,0.718607,0.104382,-0.073081,0.697286,0.040989,0.574042,-0.724609,0.164721,0.343926,4.0,2.0,15.0,SACLR,14
1.43,-1.466884,-0.705384,1.794201,0.701569,0.703848,0.111352,-0.120697,0.640406,0.053122,0.565217,-0.726636,0.166362,0.353346,4.0,2.0,15.0,SACLR,14
1.44,-1.172434,-0.58157,1.721906,0.714545,0.689924,0.115887,-0.146781,0.562532,0.052158,0.55787,-0.727678,0.168607,0.361714,4.0,2.0,15.0,SACLR,14
1.45,-1.017887,-0.441712,1.662512,0.726748,0.6764,0.119667,-0.153018,0.539024,0.084419,0.551219,-0.728332,0.171363,0.369221,4.0,2.0,15.0,SACLR,14
1.46,-0.832224,-0.276557,1.560722,0.738033,0.663416,0.123236,-0.149379,0.51647,0.079538,0.545128,-0.728807,0.174525,0.375789,4.0,2.0,15.0,SACLR,14
1.47,-0.612114,-0.101896,1.388812,0.748017,0.651506,0.126534,-0.137879,0.464202,0.053825,0.539877,-0.729084,0.178053,0.381138,4.0,2.0,15.0,SACLR,14
1.48,-0.512435,0.061504,1.157485,0.756311,0.641169,0.129985,-0.119196,0.407965,0.005437,0.535413,-0.729393,0.181598,0.38515,4.0,2.0,15.0,SACLR,14
1.49,-0.5101,0.202116,0.9088,0.762715,0.632652,0.134229,-0.086583,0.375237,-0.046567,0.53145,-0.730055,0.184754,0.387875,4.0,2.0,15.0,SACLR,14
1.5,-0.536669,0.284248,0.74268,0.767542,0.625642,0.139471,-0.048883,0.33792,-0.086645,0.52769,-0.731176,0.187394,0.389625,4.0,2.0,15.0,SACLR,14
1.51,-0.542383,0.295429,0.64805,0.771442,0.619537,0.14509,-0.007556,0.282502,-0.097193,0.524089,-0.732513,0.189659,0.390878,4.0,2.0,15.0,SACLR,14
1.52,-0.563441,0.284306,0.591276,0.774841,0.613914,0.150766,0.016373,0.232079,-0.082819,0.520559,-0.733941,0.191607,0.391963,4.0,2.0,15.0,SACLR,14
1.53,-0.556538,0.286175,0.532703,0.777832,0.608695,0.156418,0.018386,0.205972,-0.059006,0.517118,-0.73542,0.193303,0.392912,4.0,2.0,15.0,SACLR,14
1.54,-0.498497,0.32364,0.467393,0.780398,0.603933,0.161996,0.002972,0.194315,-0.013833,0.51388,-0.736897,0.194888,0.393611,4.0,2.0,15.0,SACLR,14
1.55,-0.390636,0.399537,0.419508,0.782477,0.599724,0.167513,-0.023078,0.210488,-0.00429,0.510987,-0.738327,0.196545,0.393873,4.0,2.0,15.0,SACLR,14
1.56,-0.225252,0.467687,0.397245,0.784169,0.596013,0.172764,-0.037267,0.233333,-0.001896,0.50861,-0.739571,0.198535,0.393616,4.0,2.0,15.0,SACLR,14
1.57,-0.03839,0.537452,0.390577,0.785617,0.592699,0.177518,-0.043583,0.222318,0.02611,0.506838,-0.740511,0.201002,0.392881,4.0,2.0,15.0,SACLR,14
1.58,0.148141,0.619893,0.387327,0.786889,0.589731,0.181723,-0.031839,0.174994,0.042352,0.505699,-0.741105,0.204024,0.391672,4.0,2.0,15.0,SACLR,14
1.59,0.317277,0.686012,0.378762,0.787944,0.587124,0.185549,0.000523,0.126544,0.038419,0.505126,-0.741411,0.207567,0.389965,4.0,2.0,15.0,SACLR,14
1.6,0.460817,0.691853,0.371413,0.788851,0.584892,0.188722,0.057661,0.114907,0.026458,0.505114,-0.74138,0.211463,0.387942,4.0,2.0,15.0,SACLR,14
1.61,0.669617,0.68411,0.395706,0.78978,0.582934,0.190879,0.128356,0.124433,0.001839,0.505717,-0.740885,0.215707,0.38576,4.0,2.0,15.0,SACLR,14
1.62,0.884082,0.692057,0.437562,0.790881,0.581151,0.191758,0.204083,0.124904,-0.022492,0.507064,-0.739774,0.220486,0.383415,4.0,2.0,15.0,SACLR,14
1.63,1.03909,0.732483,0.472617,0.79215,0.579407,0.191797,0.287104,0.145645,-0.027796,0.508971,-0.738175,0.225824,0.380854,4.0,2.0,15.0,SACLR,14
1.64,1.076991,0.713028,0.486013,0.793536,0.577644,0.191387,0.373304,0.184365,-0.006817,0.511174,-0.736276,0.231497,0.378163,4.0,2.0,15.0,SACLR,14
1.65,0.963142,0.604954,0.465154,0.795009,0.575826,0.190747,0.461949,0.228633,0.01192,0.513274,-0.734342,0.236885,0.375734,4.0,2.0,15.0,SACLR,14
1.66,0.78683,0.450923,0.451877,0.796636,0.573849,0.189914,0.534632,0.240085,0.038632,0.515004,-0.732528,0.241577,0.373917,4.0,2.0,15.0,SACLR,14
1.67,0.560682,0.293256,0.449478,0.79853,0.571518,0.18899,0.563347,0.19693,0.083517,0.516187,-0.73092,0.245461,0.372902,4.0,2.0,15.0,SACLR,14
1.68,0.319846,0.194153,0.376397,0.800466,0.568999,0.188398,0.544062,0.126451,0.124407,0.51672,-0.729712,0.248435,0.372561,4.0,2.0,15.0,SACLR,14
1.69,0.077141,0.193132,0.206623,0.801798,0.56699,0.188794,0.491308,0.070324,0.15636,0.516648,-0.729185,0.250371,0.372396,4.0,2.0,15.0,SACLR,14
1.7,-0.143098,0.252387,-0.00443,0.801944,0.566124,0.190761,0.442914,0.048302,0.165516,0.516058,-0.729561,0.25124,0.371892,4.0,2.0,15.0,SACLR,14
1.71,-0.309114,0.369142,-0.179016,0.800799,0.566459,0.194538,0.431592,0.055184,0.135021,0.515012,-0.730848,0.251257,0.370801,4.0,2.0,15.0,SACLR,14
1.72,-0.428411,0.483754,-0.291669,0.798614,0.567618,0.200063,0.473236,0.05694,0.100107,0.513555,-0.73289,0.250806,0.369093,4.0,2.0,15.0,SACLR,14
1.73,-0.502121,0.533067,-0.394397,0.795601,0.569419,0.206835,0.561653,0.049523,0.081357,0.511829,-0.73547,0.250004,0.366897,4.0,2.0,15.0,SACLR,14
1.74,-0.552364,0.513453,-0.450983,0.792054,0.571693,0.214051,0.659743,0.055505,0.061202,0.510003,-0.738319,0.248818,0.364516,4.0,2.0,15.0,SACLR,14
1.75,-0.627579,0.426543,-0.48991,0.788328,0.574127,0.22117,0.741457,0.074234,0.069189,0.508088,-0.741265,0.247209,0.3623,4.0,2.0,15.0,SACLR,14
1.76,-0.654492,0.333061,-0.521299,0.784552,0.576669,0.227882,0.786325,0.092017,0.098457,0.506132,-0.744219,0.245112,0.360401,4.0,2.0,15.0,SACLR,14
1.77,-0.644996,0.298685,-0.538966,0.780767,0.579332,0.234048,0.780482,0.092238,0.124396,0.5043,-0.747056,0.242757,0.358689,4.0,2.0,15.0,SACLR,14
1.78,-0.7269,0.33717,-0.593596,0.776735,0.582127,0.240436,0.744932,0.103801,0.135601,0.502391,-0.75001,0.240213,0.356911,4.0,2.0,15.0,SACLR,14
1.79,-0.97245,0.432193,-0.692519,0.772042,0.585049,0.24833,0.708884,0.108112,0.166144,0.499909,-0.753574,0.237258,0.35486,4.0,2.0,15.0,SACLR,14
1.8,-1.266629,0.49269,-0.77766,0.766521,0.587908,0.258476,0.689107,0.065641,0.207726,0.496443,-0.758055,0.233647,0.352571,4.0,2.0,15.0,SACLR,14
1.81,-1.573711,0.4985,-0.800773,0.76052,0.590211,0.270665,0.683922,-0.030946,0.223033,0.491854,-0.763364,0.229363,0.350353,4.0,2.0,15.0,SACLR,14
1.82,-1.86564,0.467625,-0.824133,0.754373,0.591564,0.284557,0.669806,-0.135418,0.239323,0.486096,-0.769361,0.224414,0.348471,4.0,2.0,15.0,SACLR,14
1.83,-2.021541,0.447418,-0.851174,0.748078,0.592128,0.299605,0.646026,-0.204097,0.238603,0.479467,-0.775821,0.218871,0.346856,4.0,2.0,15.0,SACLR,14
1.84,-1.812673,0.375289,-0.848135,0.741679,0.592397,0.314608,0.615789,-0.212727,0.190412,0.47276,-0.782213,0.213185,0.345244,4.0,2.0,15.0,SACLR,14
1.85,-1.440272,0.26912,-0.683259,0.736083,0.592992,0.326407,0.618577,-0.121938,0.129968,0.467443,-0.787356,0.208025,0.343938,4.0,2.0,15.0,SACLR,14
1.86,-1.133461,0.246688,-0.3454,0.732126,0.592563,0.335948,0.620825,0.044293,0.046178,0.462995,-0.791333,0.204366,0.343019,4.0,2.0,15.0,SACLR,14
1.87,-0.359372,0.355505,-0.092664,0.729949,0.591381,0.3427,0.605134,0.100911,-0.121035,0.459956,-0.793833,0.202925,0.342185,4.0,2.0,15.0,SACLR,14
1.88,0.148615,0.374385,-0.196214,0.727905,0.592147,0.345713,0.622605,-0.01985,-0.290034,0.459609,-0.794709,0.203211,0.340445,4.0,2.0,15.0,SACLR,14
1.89,-0.197887,0.309157,-0.202013,0.725357,0.59382,0.348188,0.609833,-0.110223,-0.208342,0.459677,-0.795507,0.203133,0.33853,4.0,2.0,15.0,SACLR,14
1.9,-0.643204,0.217263,0.123748,0.724125,0.59262,0.352767,0.668865,-0.12477,-0.177062,0.457711,-0.797034,0.20278,0.337812,4.0,2.0,15.0,SACLR,14
1.91,-0.552563,0.133859,0.440277,0.725249,0.588183,0.357847,0.720704,-0.180803,-0.177534,0.454483,-0.798488,0.203326,0.33841,4.0,2.0,15.0,SACLR,14
1.92,-0.236424,0.027664,0.507432,0.727839,0.583205,0.360725,0.720403,-0.215773,-0.201927,0.451996,-0.799015,0.204788,0.339613,4.0,2.0,15.0,SACLR,14
1.93,0.060372,-0.038628,0.495127,0.730779,0.579241,0.361167,0.697474,-0.129579,-0.170981,0.450819,-0.798673,0.20665,0.34085,4.0,2.0,15.0,SACLR,14
1.94,0.150306,-0.076778,0.500963,0.733891,0.576016,0.360013,0.617396,-0.012798,0.021685,0.450508,-0.797778,0.208701,0.342105,4.0,2.0,15.0,SACLR,14
1.95,0.072478,-0.025194,0.536339,0.737038,0.572663,0.358932,0.539726,0.088974,0.105179,0.450163,-0.796876,0.210844,0.343347,4.0,2.0,15.0,SACLR,14
1.96,-0.011319,0.008727,0.625938,0.740416,0.568429,0.35871,0.512453,0.07006,0.112512,0.449275,-0.796176,0.21321,0.34467,4.0,2.0,15.0,SACLR,14
1.97,-0.370544,-0.122232,0.627397,0.744144,0.563177,0.359278,0.538433,-0.098059,0.079672,0.447631,-0.795761,0.215415,0.346393,4.0,2.0,15.0,SACLR,14
1.98,-1.241755,-0.181047,0.423104,0.747829,0.556291,0.362342,0.582371,-0.232819,-0.026481,0.44369,-0.796653,0.215673,0.34924,4.0,2.0,15.0,SACLR,14
1.99,-1.341812,-0.115165,0.730714,0.751201,0.547274,0.369037,0.696736,-0.244601,-0.296085,0.43742,-0.798888,0.215167,0.352343,4.0,2.0,15.0,SACLR,14
2.0,-0.729582,-0.476528,1.110965,0.757411,0.536205,0.372576,0.651555,-0.444271,0.058622,0.431876,-0.799619,0.216557,0.356644,4.0,2.0,15.0,SACLR,14
2.01,-0.941628,-0.759802,0.829962,0.765148,0.525728,0.371697,0.532673,-0.591188,0.168876,0.42777,-0.79898,0.217897,0.362167,4.0,2.0,15.0,SACLR,14
2.02,-2.118184,-0.900361,0.388983,0.771379,0.515504,0.373135,0.485838,-0.340745,-0.036175,0.421539,-0.800014,0.215744,0.368425,4.0,2.0,15.0,SACLR,14
2.03,-2.972346,-0.893925,0.275906,0.776356,0.503362,0.379339,0.491466,-0.07047,-0.14324,0.411525,-0.803409,0.210247,0.37547,4.0,2.0,15.0,SACLR,14
2.04,-3.018401,-0.887998,0.467303,0.781551,0.488837,0.387577,0.49268,-0.035575,-0.239964,0.399475,-0.807536,0.204144,0.382925,4.0,2.0,15.0,SACLR,14
2.05,-2.549676,-1.011047,0.683979,0.78807,0.473269,0.393651,0.503921,-0.05942,-0.320683,0.387942,-0.810638,0.199228,0.390737,4.0,2.0,15.0,SACLR,14
2.06,-2.049142,-1.119251,0.785363,0.795748,0.458328,0.395879,0.487272,0.014877,-0.291647,0.378225,-0.812189,0.195674,0.398756,4.0,2.0,15.0,SACLR,14
2.07,-1.754019,-1.182709,0.839177,0.804028,0.444299,0.395142,0.431262,0.118781,-0.16214,0.370026,-0.812594,0.193032,0.406829,4.0,2.0,15.0,SACLR,14
2.08,-1.733652,-1.195744,0.803127,0.812357,0.430798,0.393049,0.350866,0.14754,-0.020521,0.36245,-0.812511,0.190657,0.414856,4.0,2.0,15.0,SACLR,14
2.09,-1.892157,-1.157194,0.718596,0.82022,0.417438,0.391131,0.287415,0.136884,0.064862,0.35459,-0.812574,0.187855,0.422729,4.0,2.0,15.0,SACLR,14
2.1,-1.972513,-1.120785,0.627586,0.827444,0.40428,0.389736,0.249384,0.108705,0.088978,0.346311,-0.812922,0.184463,0.430349,4.0,2.0,15.0,SACLR,14
2.11,-1.981289,-1.136551,0.523356,0.834124,0.391788,0.388252,0.245497,0.093853,0.059059,0.338053,-0.813331,0.180608,0.437715,4.0,2.0,15.0,SACLR,14
2.12,-2.092983,-1.260507,0.393161,0.840565,0.380021,0.386048,0.259227,0.1333,0.057891,0.329808,-0.813669,0.175975,0.445199,4.0,2.0,15.0,SACLR,14
2.13,-2.085999,-1.380191,0.267129,0.846895,0.369152,0.382748,0.265364,0.200413,0.08414,0.321663,-0.813831,0.170448,0.452945,4.0,2.0,15.0,SACLR,14
2.14,-1.992561,-1.448973,0.239856,0.853193,0.359284,0.378122,0.253008,0.237533,0.125601,0.313954,-0.813637,0.164488,0.460838,4.0,2.0,15.0,SACLR,14
2.15,-1.766912,-1.504427,0.302082,0.859697,0.349906,0.372137,0.22946,0.204431,0.179498,0.306869,-0.812903,0.158923,0.468789,4.0,2.0,15.0,SACLR,14
2.16,-1.63941,-1.603464,0.344689,0.866547,0.340841,0.364587,0.214248,0.144984,0.202979,0.300409,-0.811555,0.153856,0.476928,4.0,2.0,15.0,SACLR,14
2.17,-1.514267,-1.683022,0.333168,0.87364,0.332169,0.355551,0.171037,0.137695,0.252161,0.294435,-0.809676,0.149,0.485317,4.0,2.0,15.0,SACLR,14
2.18,-1.464882,-1.688849,0.261865,0.880554,0.324323,0.3456,0.115891,0.167422,0.253049,0.288931,-0.807485,0.144113,0.493679,4.0,2.0,15.0,SACLR,14
2.19,-1.595584,-1.683488,0.186242,0.887034,0.317167,0.335523,0.043828,0.187839,0.283664,0.283432,-0.805293,0.138797,0.501902,4.0,2.0,15.0,SACLR,14
2.2,-1.725544,-1.610361,0.10654,0.892966,0.31032,0.326057,-0.016303,0.180006,0.310662,0.277464,-0.803354,0.132856,0.509888,4.0,2.0,15.0,SACLR,14
2.21,-1.747921,-1.499458,0.015038,0.898158,0.304181,0.317469,-0.055644,0.15131,0.302633,0.271327,-0.801709,0.126482,0.517346,4.0,2.0,15.0,SACLR,14
2.22,-1.758634,-1.460648,-0.071473,0.902691,0.298936,0.309492,-0.07095,0.145445,0.270449,0.265275,-0.800244,0.119812,0.524293,4.0,2.0,15.0,SACLR,14
2.23,-1.708565,-1.508993,-0.134041,0.906921,0.29455,0.301223,-0.046188,0.157522,0.193635,0.259447,-0.798671,0.112854,0.531108,4.0,2.0,15.0,SACLR,14
2.24,-1.572425,-1.525066,-0.169207,0.911017,0.291037,0.29214,-0.015921,0.172144,0.165944,0.254091,-0.796785,0.105845,0.537929,4.0,2.0,15.0,SACLR,14
2.25,-1.175277,-1.435822,-0.174604,0.914782,0.288626,0.28261,-0.028369,0.200891,0.210371,0.249808,-0.794604,0.099546,0.544326,4.0,2.0,15.0,SACLR,14
2.26,-0.845693,-1.342942,-0.170166,0.918163,0.287409,0.272713,-0.102825,0.276418,0.371926,0.246994,-0.792112,0.094419,0.550125,4.0,2.0,15.0,SACLR,14
2.27,-0.821212,-1.190862,-0.198301,0.921073,0.286864,0.263312,-0.186805,0.373429,0.469568,0.244843,-0.789669,0.089879,0.555334,4.0,2.0,15.0,SACLR,14
2.28,-0.857734,-0.932489,-0.302068,0.923126,0.286934,0.255944,-0.242996,0.384971,0.440223,0.24264,-0.78785,0.085233,0.559602,4.0,2.0,15.0,SACLR,14
2.29,-0.799995,-0.772004,-0.428935,0.924205,0.28822,0.250549,-0.259181,0.310001,0.366424,0.240749,-0.786641,0.08044,0.562819,4.0,2.0,15.0,SACLR,14
2.3,-0.771945,-0.710858,-0.530825,0.924639,0.29076,0.245969,-0.240664,0.223812,0.302493,0.23934,-0.785679,0.075452,0.565448,4.0,2.0,15.0,SACLR,14
2.31,-0.914797,-0.705612,-0.597398,0.924715,0.293966,0.241841,-0.208986,0.13914,0.233791,0.237937,-0.784867,0.070029,0.56786,4.0,2.0,15.0,SACLR,14
2.32,-1.166297,-0.719274,-0.609098,0.924623,0.297104,0.238331,-0.188585,0.065643,0.190624,0.235833,-0.784277,0.06384,0.570278,4.0,2.0,15.0,SACLR,14
2.33,-1.354641,-0.710501,-0.625508,0.924495,0.299776,0.235463,-0.207821,0.013304,0.193278,0.232829,-0.783892,0.056961,0.572764,4.0,2.0,15.0,SACLR,14
2.34,-1.417408,-0.645071,-0.709823,0.924101,0.302621,0.233364,-0.248442,-0.010506,0.178944,0.229441,-0.783724,0.049576,0.575043,4.0,2.0,15.0,SACLR,14
2.35,-1.436223,-0.562398,-0.853449,0.923127,0.306508,0.232139,-0.295701,0.026759,0.197793,0.226222,-0.783792,0.041703,0.576849,4.0,2.0,15.0,SACLR,14
2.36,-1.409323,-0.497236,-0.950282,0.921541,0.311563,0.231712,-0.34215,0.119665,0.251458,0.22332,-0.784054,0.033405,0.578163,4.0,2.0,15.0,SACLR,14
2.37,-1.263933,-0.439299,-0.955874,0.919614,0.317283,0.231605,-0.386091,0.175683,0.297463,0.220896,-0.784325,0.025231,0.579139,4.0,2.0,15.0,SACLR,14
2.38,-1.015582,-0.333176,-0.912245,0.917516,0.323231,0.231702,-0.423849,0.143978,0.29172,0.219145,-0.78456,0.017795,0.579762,4.0,2.0,15.0,SACLR,14
2.39,-0.751942,-0.182808,-0.899517,0.915166,0.329474,0.232201,-0.442022,0.075907,0.258491,0.21833,-0.784838,0.011411,0.579855,4.0,2.0,15.0,SACLR,14
2.4,-0.612439,-0.063404,-0.933891,0.91239,0.336286,0.233359,-0.455008,0.04436,0.279642,0.218349,-0.785268,0.005729,0.579348,4.0,2.0,15.0,SACLR,14
2.41,-0.594997,0.011552,-1.00347,0.909147,0.343725,0.235169,-0.460341,0.059596,0.321838,0.218804,-0.785865,0.000153,0.578395,4.0,2.0,15.0,SACLR,14
2.42,-0.533009,0.083164,-1.034281,0.905479,0.351675,0.237553,-0.450737,0.071177,0.31683,0.21952,-0.786604,-0.00548,0.577091,4.0,2.0,15.0,SACLR,14
2.43,-0.462545,0.202393,-0.990205,0.901527,0.35968,0.240582,-0.426185,0.067658,0.297245,0.220509,-0.787512,-0.010751,0.575399,4.0,2.0,15.0,SACLR,14
2.44,-0.444815,0.31405,-0.959019,0.897355,0.367316,0.244606,-0.401704,0.073602,0.27082,0.221525,-0.788708,-0.015594,0.573257,4.0,2.0,15.0,SACLR,14
2.45,-0.381607,0.330704,-0.987803,0.892939,0.374989,0.249084,-0.357905,0.066997,0.200547,0.222694,-0.79002,-0.020253,0.570846,4.0,2.0,15.0,SACLR,14
2.46,-0.278359,0.275685,-1.0096,0.888361,0.383094,0.253089,-0.297007,0.035852,0.117349,0.224269,-0.791156,-0.02483,0.568471,4.0,2.0,15.0,SACLR,14
2.47,-0.198368,0.200324,-0.980638,0.883906,0.39131,0.256099,-0.241892,-0.014189,0.068471,0.226197,-0.791959,-0.029162,0.566379,4.0,2.0,15.0,SACLR,14
2.48,-0.209902,0.159576,-0.978013,0.879565,0.399441,0.258478,-0.217273,-0.065182,0.066717,0.228208,-0.792542,-0.033402,0.564519,4.0,2.0,15.0,SACLR,14
2.49,-0.285511,0.158106,-0.988012,0.875191,0.407436,0.260838,-0.208657,-0.086009,0.082592,0.230036,-0.793088,-0.037814,0.56273,4.0,2.0,15.0,SACLR,14
2.5,-0.425902,0.187466,-0.986322,0.870672,0.415167,0.263756,-0.212347,-0.080099,0.153405,0.231454,-0.793768,-0.042547,0.560849,4.0,2.0,15.0,SACLR,14
2.51,-0.566576,0.25707,-0.912235,0.866087,0.422121,0.267783,-0.216413,-0.064455,0.2259,0.23219,-0.794756,-0.047474,0.558745,4.0,2.0,15.0,SACLR,14
2.52,-0.731386,0.300482,-0.830134,0.861629,0.427886,0.272964,-0.203411,-0.06108,0.254441,0.23211,-0.796075,-0.052413,0.556456,4.0,2.0,15.0,SACLR,14
2.53,-0.769806,0.300505,-0.779525,0.857314,0.432687,0.278916,-0.179671,-0.075906,0.272888,0.231358,-0.797597,-0.057416,0.55409,4.0,2.0,15.0,SACLR,14
2.54,-0.548076,0.246972,-0.726235,0.853251,0.437259,0.284195,-0.150157,-0.09592,0.244949,0.230857,-0.798911,-0.061958,0.551912,4.0,2.0,15.0,SACLR,14
2.55,-0.399198,0.220052,-0.676918,0.849493,0.441937,0.288188,-0.141562,-0.086514,0.203069,0.231028,-0.799855,-0.065778,0.550029,4.0,2.0,15.0,SACLR,14
2.56,-0.422722,0.263299,-0.643316,0.845873,0.44632,0.292057,-0.153917,-0.041214,0.162044,0.231272,-0.80077,-0.069257,0.548165,4.0,2.0,15.0,SACLR,14
2.57,-0.445742,0.29698,-0.706445,0.842044,0.4507,0.296363,-0.164127,-0.05417,0.123635,0.231482,-0.801801,-0.072784,0.546108,4.0,2.0,15.0,SACLR,14
2.58,-0.60713,0.335229,-0.808488,0.837639,0.455537,0.301409,-0.172539,-0.106507,0.10594,0.231589,-0.80299,-0.076882,0.543748,4.0,2.0,15.0,SACLR,14
2.59,-0.88118,0.33049,-0.821658,0.832867,0.460138,0.307581,-0.165417,-0.13711,0.096808,0.230973,-0.804424,-0.081803,0.541167,4.0,2.0,15.0,SACLR,14
2.6,-1.196915,0.320269,-0.80976,0.82807,0.463681,0.315118,-0.131797,-0.176465,0.050208,0.229117,-0.806161,-0.087536,0.538467,4.0,2.0,15.0,SACLR,14
2.61,-1.345992,0.255399,-0.810821,0.823352,0.46626,0.323565,-0.086001,-0.191617,0.004423,0.22622,-0.808058,-0.093943,0.535763,4.0,2.0,15.0,SACLR,14
2.62,-1.280943,0.131877,-0.851658,0.818843,0.468724,0.331353,-0.057353,-0.169423,-0.022911,0.223166,-0.809661,-0.100624,0.533405,4.0,2.0,15.0,SACLR,14
2.63,-1.185983,0.040651,-0.868754,0.814495,0.471681,0.337808,-0.052349,-0.059618,-0.042413,0.220521,-0.810792,-0.107331,0.531476,4.0,2.0,15.0,SACLR,14
2.64,-1.079886,0.040289,-0.80974,0.810381,0.474643,0.343507,-0.066927,0.085751,-0.064881,0.218157,-0.811677,-0.113727,0.529768,4.0,2.0,15.0,SACLR,14
2.65,-0.940599,0.121284,-0.780127,0.806374,0.477512,0.348917,-0.099786,0.122784,-0.066324,0.21618,-0.812511,-0.119516,0.528022,4.0,2.0,15.0,SACLR,14
2.66,-0.90182,0.200993,-0.846033,0.801894,0.480812,0.354664,-0.134627,0.058601,-0.066608,0.214705,-0.813449,-0.125033,0.525899,4.0,2.0,15.0,SACLR,14
2.67,-1.080003,0.178117,-0.948511,0.796882,0.484454,0.360947,-0.143165,-0.026523,-0.034302,0.213195,-0.814436,-0.131023,0.523521,4.0,2.0,15.0,SACLR,14
2.68,-1.433013,0.084345,-1.008924,0.791589,0.487741,0.368097,-0.115732,-0.073541,-0.013071,0.210773,-0.81545,-0.138167,0.521082,4.0,2.0,15.0,SACLR,14
2.69,-1.71524,-0.032933,-0.941684,0.78666,0.489584,0.376131,-0.072274,-0.050405,-0.033373,0.206854,-0.816495,-0.146294,0.518793,4.0,2.0,15.0,SACLR,14
2.7,-1.692524,-0.147774,-0.736152,0.78286,0.48969,0.383842,-0.047554,-0.012975,-0.090522,0.201927,-0.817374,-0.154339,0.517015,4.0,2.0,15.0,SACLR,14
2.71,-1.311823,-0.154901,-0.462305,0.780549,0.488426,0.390108,-0.067734,-0.007697,-0.169191,0.197092,-0.818031,-0.160872,0.51585,4.0,2.0,15.0,SACLR,14
2.72,-0.677207,-0.099749,-0.391691,0.779049,0.487708,0.393984,-0.133114,-0.019186,-0.207995,0.193958,-0.818343,-0.165249,0.515158,4.0,2.0,15.0,SACLR,14
2.73,-0.184392,0.036547,-0.476994,0.777101,0.489408,0.395719,-0.213884,0.0647,-0.201566,0.193337,-0.818291,-0.168104,0.51455,4.0,2.0,15.0,SACLR,14
2.74,0.011841,0.179294,-0.516706,0.774171,0.493063,0.396924,-0.249665,0.183588,-0.181942,0.194446,-0.818215,-0.170253,0.513545,4.0,2.0,15.0,SACLR,14
2.75,0.04499,0.295906,-0.408974,0.770865,0.496835,0.398651,-0.208731,0.184653,-0.182937,0.196015,-0.818413,-0.171832,0.512106,4.0,2.0,15.0,SACLR,14
2.76,-0.073432,0.285368,-0.338644,0.767817,0.49965,0.401007,-0.112773,0.063918,-0.182959,0.197196,-0.818874,-0.173058,0.5105,4.0,2.0,15.0,SACLR,14
2.77,-0.332195,0.110535,-0.351609,0.76528,0.501485,0.403558,-0.015982,-0.050359,-0.170328,0.197442,-0.819291,-0.174761,0.509154,4.0,2.0,15.0,SACLR,14
2.78,-0.625581,-0.076435,-0.357913,0.763427,0.502265,0.406089,0.056885,-0.092414,-0.179206,0.196381,-0.819485,-0.17745,0.508321,4.0,2.0,15.0,SACLR,14
2.79,-0.724209,-0.212071,-0.301921,0.762352,0.501984,0.40845,0.081291,-0.072525,-0.197696,0.19426,-0.819493,-0.180712,0.507974,4.0,2.0,15.0,SACLR,14
2.8,-0.755332,-0.257487,-0.27566,0.76191,0.501134,0.410314,0.040138,-0.03272,-0.193624,0.191745,-0.819334,-0.18398,0.508013,4.0,2.0,15.0,SACLR,14
2.81,-0.800872,-0.236522,-0.303978,0.761465,0.500141,0.412348,-0.034536,0.038312,-0.180307,0.189046,-0.819178,-0.187409,0.508023,4.0,2.0,15.0,SACLR,14
2.82,-0.709674,-0.184331,-0.344321,0.7607,0.499452,0.414587,-0.087528,0.091841,-0.156866,0.186529,-0.819055,-0.1909,0.507852,4.0,2.0,15.0,SACLR,14
2.83,-0.488582,-0.148902,-0.340717,0.759647,0.499557,0.416387,-0.107212,0.104385,-0.125356,0.184767,-0.818875,-0.194003,0.50761,4.0,2.0,15.0,SACLR,14
2.84,-0.280052,-0.151288,-0.285029,0.75867,0.500371,0.417193,-0.108172,0.103252,-0.098543,0.183863,-0.818548,-0.196407,0.507541,4.0,2.0,15.0,SACLR,14
2.85,-0.155117,-0.171963,-0.217512,0.758075,0.501392,0.417048,-0.099658,0.086209,-0.083659,0.18347,-0.818088,-0.19813,0.507755,4.0,2.0,15.0,SACLR,14
2.86,-0.128408,-0.170994,-0.191482,0.757747,0.50237,0.416465,-0.090069,0.05778,-0.081488,0.183261,-0.817584,-0.199469,0.508117,4.0,2.0,15.0,SACLR,14
2.87,-0.141817,-0.184179,-0.196638,0.757499,0.503267,0.415833,-0.093391,0.023223,-0.068284,0.183012,-0.817071,-0.200779,0.508517,4.0,2.0,15.0,SACLR,14
2.88,-0.143268,-0.181745,-0.204015,0.757241,0.504192,0.415182,-0.096505,-0.010662,-0.063024,0.182754,-0.816538,-0.202132,0.508931,4.0,2.0,15.0,SACLR,14
2.89,-0.156259,-0.180643,-0.193091,0.75695,0.50509,0.414621,-0.09597,-0.008814,-0.063776,0.182471,-0.816026,-0.2035,0.509307,4.0,2.0,15.0,SACLR,14
2.9,-0.170867,-0.169427,-0.15232,0.756753,0.50575,0.414175,-0.088434,0.021121,-0.063055,0.182065,-0.815559,-0.204818,0.509671,4.0,2.0,15.0,SACLR,14
2.91,-0.074682,-0.11153,-0.094677,0.756663,0.506161,0.413839,-0.075022,0.069569,-0.080968,0.181705,-0.815208,-0.205805,0.509965,4.0,2.0,15.0,SACLR,14
2.92,0.032335,-0.078472,-0.042755,0.756658,0.506642,0.413258,-0.065573,0.094234,-0.077198,0.181738,-0.814926,-0.206213,0.510237,4.0,2.0,15.0,SACLR,14
2.93,0.026285,-0.102753,-0.040879,0.756777,0.507114,0.412462,-0.07184,0.080044,-0.025819,0.181901,-0.814639,-0.206384,0.510569,4.0,2.0,15.0,SACLR,14
2.94,0.008242,-0.101243,-0.084898,0.756864,0.507669,0.411617,-0.07681,0.047186,0.021412,0.182025,-0.814299,-0.206701,0.510938,4.0,2.0,15.0,SACLR,14
2.95,-0.004771,-0.073696,-0.108602,0.756684,0.508442,0.410994,-0.080216,0.020428,0.037538,0.1822,-0.813983,-0.207194,0.511181,4.0,2.0,15.0,SACLR,14
2.96,0.020705,-0.077889,-0.105433,0.756401,0.509275,0.410484,-0.073296,-0.003873,0.017342,0.182402,-0.813692,-0.207718,0.511359,4.0,2.0,15.0,SACLR,14
2.97,0.083173,-0.112692,-0.132966,0.756165,0.510403,0.409515,-0.059098,-0.035488,-0.000366,0.182827,-0.813282,-0.20816,0.51168,4.0,2.0,15.0,SACLR,14
2.98,0.108824,-0.14213,-0.132299,0.755969,0.511877,0.408035,-0.058215,-0.01975,0.004333,0.183456,-0.812713,-0.208602,0.512178,4.0,2.0,15.0,SACLR,14
2.99,0.148141,-0.108166,-0.08663,0.755849,0.513414,0.406322,-0.072835,0.026579,0.011906,0.184213,-0.812113,-0.208888,0.512742,4.0,2.0,15.0,SACLR,14
3.0,0.196259,-0.079207,-0.051736,0.75579,0.514846,0.404617,-0.078743,0.054139,-0.026336,0.1851,-0.811596,-0.208857,0.513254,4.0,2.0,15.0,SACLR,14
3.01,0.251026,-0.06656,-0.058386,0.755677,0.516346,0.402914,-0.078675,0.061978,-0.038382,0.186172,-0.811134,-0.208611,0.513695,4.0,2.0,15.0,SACLR,14
3.02,0.195318,-0.081612,-0.074259,0.755488,0.517913,0.401253,-0.073115,0.025041,-0.013954,0.187272,-0.810676,-0.2084,0.514104,4.0,2.0,15.0,SACLR,14
3.03,0.042666,-0.087223,-0.049462,0.755361,0.518948,0.400153,-0.056967,-0.028362,0.023812,0.187862,-0.810317,-0.208479,0.514423,4.0,2.0,15.0,SACLR,14
3.04,-0.027851,-0.092237,-0.02713,0.755421,0.519253,0.399644,-0.040608,-0.06802,0.06346,0.187865,-0.810089,-0.208754,0.51467,4.0,2.0,15.0,SACLR,14
3.05,-0.007258,-0.09537,-0.043081,0.755587,0.519388,0.399153,-0.036533,-0.073313,0.078234,0.187744,-0.809863,-0.209043,0.514952,4.0,2.0,15.0,SACLR,14
3.06,0.043905,-0.08088,-0.042333,0.755643,0.519787,0.398529,-0.044782,-0.019299,0.087235,0.187823,-0.809607,-0.209288,0.515226,4.0,2.0,15.0,SACLR,14
3.07,0.120532,-0.035607,-0.025232,0.755514,0.520527,0.397806,-0.061606,0.050579,0.085211,0.188242,-0.809366,-0.209355,0.515424,4.0,2.0,15.0,SACLR,14
3.08,0.235154,0.016017,-0.01269,0.755225,0.521692,0.396829,-0.072775,0.078482,0.063147,0.189157,-0.809136,-0.209076,0.515563,4.0,2.0,15.0,SACLR,14
3.09,0.319165,0.026671,-0.0068,0.754886,0.523203,0.395481,-0.070179,0.052969,0.044003,0.190503,-0.808879,-0.20846,0.515721,4.0,2.0,15.0,SACLR,14
3.1,0.351539,0.019862,-0.004432,0.754603,0.524799,0.393904,-0.060221,0.011029,0.022554,0.192017,-0.808598,-0.207656,0.515924,4.0,2.0,15.0,SACLR,14
3.11,0.403184,-0.019456,0.017042,0.754532,0.526196,0.392173,-0.047791,-0.039761,0.006814,0.193494,-0.808311,-0.206689,0.516211,4.0,2.0,15.0,SACLR,14
3.12,0.399162,-0.063491,0.044954,0.754836,0.527346,0.390038,-0.044493,-0.068651,0.001366,0.194899,-0.807943,-0.205539,0.516716,4.0,2.0,15.0,SACLR,14
3.13,0.497,-0.036922,0.107412,0.755382,0.528233,0.387773,-0.061153,-0.048329,0.013579,0.196272,-0.807593,-0.204156,0.517292,4.0,2.0,15.0,SACLR,14
3.14,0.687843,0.010228,0.128417,0.755971,0.529503,0.384884,-0.090031,-0.041862,0.03014,0.198292,-0.807207,-0.202133,0.517917,4.0,2.0,15.0,SACLR,14
3.15,0.657924,0.015297,0.002308,0.756275,0.531638,0.381325,-0.099903,-0.069159,0.017448,0.200922,-0.806624,-0.20005,0.518621,4.0,2.0,15.0,SACLR,14
3.16,0.419283,0.011324,-0.088377,0.75597,0.534062,0.378532,-0.066319,-0.051396,-0.00341,0.203251,-0.806063,-0.198817,0.519059,4.0,2.0,15.0,SACLR,14
3.17,0.224104,-0.027695,-0.076737,0.755529,0.535919,0.376785,-0.024007,0.003708,0.011078,0.204744,-0.805634,-0.19836,0.519314,4.0,2.0,15.0,SACLR,14
3.18,0.108492,-0.082193,0.015123,0.755574,0.536758,0.375498,0.000713,0.064926,-0.008371,0.205425,-0.805296,-0.198111,0.519665,4.0,2.0,15.0,SACLR,14
3.19,0.112873,-0.088766,0.072928,0.756167,0.536785,0.374262,-0.013095,0.091633,-0.011377,0.205624,-0.805001,-0.19775,0.520181,4.0,2.0,15.0,SACLR,14
3.2,0.234675,-0.021828,0.076569,0.75681,0.536818,0.372914,-0.054784,0.069474,-0.042149,0.206054,-0.804758,-0.197031,0.520658,4.0,2.0,15.0,SACLR,14
3.21,0.303571,-0.00285,0.00778,0.75708,0.537514,0.37136,-0.095719,0.011497,-0.056388,0.207037,-0.80449,-0.196151,0.521014,4.0,2.0,15.0,SACLR,14
3.22,0.299266,-0.006686,-0.052008,0.75696,0.53886,0.369651,-0.098696,-0.048595,-0.07241,0.208344,-0.804128,-0.195458,0.521313,4.0,2.0,15.0,SACLR,14
3.23,0.163066,0.004339,-0.073676,0.756608,0.540224,0.368379,-0.061677,-0.049135,-0.099198,0.209471,-0.803821,-0.195092,0.521472,4.0,2.0,15.0,SACLR,14
3.24,0.022102,0.019751,-0.039999,0.756229,0.541004,0.368012,-0.025821,0.010327,-0.070481,0.209989,-0.803705,-0.1951,0.521439,4.0,2.0,15.0,SACLR,14
3.25,0.033213,0.001124,0.032166,0.756141,0.541132,0.368003,-0.002083,0.051,-0.063651,0.210104,-0.803712,-0.195059,0.521397,4.0,2.0,15.0,SACLR,14
3.26,0.129148,-0.020907,0.094287,0.756513,0.540905,0.367572,-0.000959,0.012562,-0.04523,0.210216,-0.803685,-0.194619,0.521558,4.0,2.0,15.0,SACLR,14
3.27,0.204654,-0.076498,0.083225,0.757217,0.540838,0.366219,0.015381,-0.031973,-0.121728,0.210639,-0.803458,-0.193816,0.522036,4.0,2.0,15.0,SACLR,14
3.28,0.069917,-0.089537,0.00851,0.757789,0.541013,0.364774,0.020195,0.014545,-0.145643,0.211005,-0.803119,-0.193356,0.52258,4.0,2.0,15.0,SACLR,14
3.29,0.001581,-0.064153,-0.046743,0.757946,0.541303,0.364018,0.019261,0.079394,-0.13387,0.211123,-0.802864,-0.193441,0.522894,4.0,2.0,15.0,SACLR,14
3.3,0.019593,-0.064643,-0.028314,0.75793,0.541705,0.363452,0.030491,0.071485,-0.122973,0.211217,-0.802627,-0.193689,0.523126,4.0,2.0,15.0,SACLR,14
3.31,0.159016,-0.06168,0.043164,0.758272,0.541971,0.362342,0.051192,0.080756,-0.141196,0.211483,-0.802327,-0.193499,0.523549,4.0,2.0,15.0,SACLR,14
3.32,0.203096,-0.080604,0.058906,0.758832,0.542405,0.360513,0.04967,0.105727,-0.070565,0.212179,-0.801927,-0.192793,0.524141,4.0,2.0,15.0,SACLR,14
3.33,0.141426,-0.022118,0.023797,0.759217,0.542782,0.359135,0.034194,0.118382,0.009624,0.212681,-0.801604,-0.192348,0.524594,4.0,2.0,15.0,SACLR,14
3.34,0.409319,-0.017579,0.065954,0.759514,0.543507,0.357405,0.055122,0.06158,0.026033,0.213685,-0.80127,-0.19149,0.525011,4.0,2.0,15.0,SACLR,14
3.35,0.499767,-0.081258,0.082514,0.760215,0.544559,0.3543,0.052529,-0.071887,0.116312,0.215339,-0.800675,-0.189921,0.525813,4.0,2.0,15.0,SACLR,14
3.36,0.406834,-0.196516,0.103992,0.761268,0.545512,0.350552,0.056587,-0.11587,0.094196,0.216804,-0.799835,-0.18852,0.526991,4.0,2.0,15.0,SACLR,14
3.37,0.36703,-0.233279,0.113375,0.762658,0.54612,0.346564,0.070731,-0.137596,0.012689,0.217925,-0.798878,-0.187284,0.528419,4.0,2.0,15.0,SACLR,14
3.38,0.210523,-0.200455,0.061468,0.763913,0.546546,0.34311,0.045886,-0.138877,0.013641,0.218724,-0.798008,-0.18638,0.529722,4.0,2.0,15.0,SACLR,14
3.39,-0.122388,-0.164505,0.0132,0.764741,0.546549,0.341257,0.010558,-0.077081,0.037253,0.218717,-0.797442,-0.186319,0.530598,4.0,2.0,15.0,SACLR,14
3.4,-0.187662,-0.132365,0.025418,0.765348,0.545841,0.341027,-0.005522,-0.007724,0.051505,0.21782,-0.797229,-0.186919,0.531075,4.0,2.0,15.0,SACLR,14
3.41,-0.029478,-0.134647,-0.004382,0.765812,0.545471,0.340578,-0.00211,-0.008316,-0.024263,0.217308,-0.797003,-0.187283,0.531496,4.0,2.0,15.0,SACLR,14
3.42,-0.01108,-0.165507,-0.029171,0.766187,0.545577,0.339561,-0.00569,0.000565,-0.039497,0.217156,-0.796615,-0.187579,0.532036,4.0,2.0,15.0,SACLR,14
3.43,0.03193,-0.186718,0.016013,0.766743,0.545576,0.338306,-0.010777,0.040148,-0.040546,0.216983,-0.796172,-0.187785,0.532696,4.0,2.0,15.0,SACLR,14
3.44,0.116643,-0.161595,0.071886,0.767645,0.545313,0.336682,-0.034689,0.019217,-0.045117,0.216892,-0.79571,-0.18758,0.533495,4.0,2.0,15.0,SACLR,14
3.45,0.146018,-0.085373,0.058533,0.76858,0.545056,0.33496,-0.058284,-0.023388,-0.068252,0.217072,-0.795311,-0.186976,0.534228,4.0,2.0,15.0,SACLR,14
3.46,-0.036319,-0.014547,-0.036094,0.768915,0.544982,0.334312,-0.057199,-0.015654,-0.081474,0.217159,-0.795162,-0.186745,0.534496,4.0,2.0,15.0,SACLR,14
3.47,-0.221423,-0.023274,-0.111087,0.768576,0.545021,0.335027,-0.03675,0.036034,-0.072317,0.216759,-0.795231,-0.187408,0.534324,4.0,2.0,15.0,SACLR,14
3.48,-0.298125,-0.071897,-0.119111,0.768065,0.54501,0.336214,0.001542,0.066517,-0.07802,0.215961,-0.795314,-0.188635,0.534092,4.0,2.0,15.0,SACLR,14
3.49,-0.341088,-0.147231,-0.092523,0.767857,0.544752,0.337107,0.032939,0.08417,-0.071909,0.214875,-0.795264,-0.190023,0.534112,4.0,2.0,15.0,SACLR,14
3.5,-0.35009,-0.175196,-0.038976,0.768065,0.544051,0.337765,0.036089,0.100816,-0.05418,0.213479,-0.795139,-0.191406,0.534364,4.0,2.0,15.0,SACLR,14
3.51,-0.272884,-0.177694,-0.031458,0.768489,0.543237,0.338111,0.019963,0.094672,-0.049018,0.212144,-0.794968,-0.192565,0.534733,4.0,2.0,15.0,SACLR,14
3.52,-0.229785,-0.147174,-0.047193,0.768822,0.542728,0.338172,-0.009697,0.08067,-0.053702,0.211125,-0.794747,-0.193555,0.535108,4.0,2.0,15.0,SACLR,14
3.53,-0.279989,-0.148675,-0.041734,0.769062,0.54228,0.338342,-0.026875,0.052263,-0.057962,0.210111,-0.794543,-0.194607,0.535427,4.0,2.0,15.0,SACLR,14
3.54,-0.200222,-0.160162,0.006498,0.769504,0.541732,0.338217,-0.009799,-0.01364,-0.146796,0.209113,-0.794281,-0.195514,0.535876,4.0,2.0,15.0,SACLR,14
3.55,-0.132375,-0.169115,0.034341,0.770133,0.54122,0.337602,0.009789,-0.102988,-0.219453,0.208371,-0.793955,-0.196053,0.536452,4.0,2.0,15.0,SACLR,14
3.56,-0.140263,-0.142049,0.014469,0.770787,0.540707,0.336933,0.007671,-0.129513,-0.201481,0.207688,-0.793634,-0.196498,0.537028,4.0,2.0,15.0,SACLR,14
3.57,-0.111082,-0.081274,0.000686,0.771187,0.540336,0.33661,-0.007897,-0.085335,-0.141343,0.207103,-0.793417,-0.196964,0.537404,4.0,2.0,15.0,SACLR,14
3.58,-0.018319,-0.023312,0.029256,0.771407,0.540121,0.336454,-0.006255,-0.002828,-0.109632,0.206806,-0.793316,-0.197172,0.537591,4.0,2.0,15.0,SACLR,14
3.59,0.159224,0.006905,0.066228,0.771654,0.540082,0.335948,0.023085,0.082873,-0.123698,0.206988,-0.79324,-0.196837,0.537756,4.0,2.0,15.0,SACLR,14
3.6,0.337429,-0.012347,0.082206,0.772023,0.54047,0.334472,0.055171,0.128277,-0.111785,0.207853,-0.793011,-0.195882,0.538109,4.0,2.0,15.0,SACLR,14
3.61,0.401558,-0.061445,0.107914,0.772635,0.541079,0.332066,0.071694,0.140806,-0.081853,0.209104,-0.792583,-0.194541,0.538741,4.0,2.0,15.0,SACLR,14
3.62,0.399112,-0.085923,0.128,0.773582,0.541536,0.329104,0.069099,0.122985,-0.042696,0.210337,-0.792012,-0.193053,0.539635,4.0,2.0,15.0,SACLR,14
3.63,0.358649,-0.064468,0.141826,0.774575,0.541744,0.326414,0.04853,0.079395,-0.021925,0.211416,-0.791525,-0.191561,0.540459,4.0,2.0,15.0,SACLR,14
3.64,0.274053,-0.036042,0.128894,0.775481,0.541719,0.3243,0.019685,0.032058,-0.001042,0.212253,-0.791181,-0.190218,0.541109,4.0,2.0,15.0,SACLR,14
3.65,0.19387,-0.017908,0.126068,0.776248,0.541493,0.322838,-0.002734,0.000362,0.00991,0.212807,-0.790983,-0.189119,0.541566,4.0,2.0,15.0,SACLR,14
3.66,0.122956,-0.050861,0.153755,0.777117,0.540919,0.321708,0.000654,-0.008646,-0.031486,0.213032,-0.790854,-0.188159,0.541999,4.0,2.0,15.0,SACLR,14
3.67,0.115954,-0.072029,0.159984,0.778183,0.540039,0.320607,0.021133,0.008912,-0.079763,0.212986,-0.790713,-0.187289,0.542525,4.0,2.0,15.0,SACLR,14
3.68,0.175498,-0.084733,0.146754,0.779255,0.539309,0.31923,0.027294,0.010785,-0.10669,0.21308,-0.790497,-0.186359,0.543122,4.0,2.0,15.0,SACLR,14
3.69,0.165018,-0.077854,0.122622,0.78022,0.538907,0.317549,0.026177,0.011661,-0.124403,0.213365,-0.790173,-0.185474,0.543784,4.0,2.0,15.0,SACLR,14
3.7,0.240457,-0.073089,0.089735,0.781017,0.538806,0.315754,0.034779,0.013821,-0.120457,0.213849,-0.789809,-0.184606,0.544418,4.0,2.0,15.0,SACLR,14
3.71,0.259256,-0.015596,0.026436,0.781452,0.539227,0.313952,0.035823,0.021427,-0.073336,0.2147,-0.78944,-0.183738,0.544911,4.0,2.0,15.0,SACLR,14
3.72,0.222958,0.012456,-0.035607,0.781363,0.54008,0.312706,0.041482,0.082982,-0.022026,0.215684,-0.789186,-0.183134,0.545094,4.0,2.0,15.0,SACLR,14
3.73,0.256832,-0.025904,-0.045614,0.781107,0.541165,0.311467,0.061712,0.144184,-0.005651,0.21672,-0.788896,-0.182691,0.545251,4.0,2.0,15.0,SACLR,14
3.74,0.403032,-0.022203,-0.027587,0.781018,0.542437,0.309471,0.076587,0.148145,-0.012291,0.218071,-0.788432,-0.181964,0.545628,4.0,2.0,15.0,SACLR,14
3.75,0.478004,0.032776,-0.074072,0.780746,0.544212,0.307032,0.066589,0.125039,-0.013605,0.219993,-0.7879,-0.180912,0.545974,4.0,2.0,15.0,SACLR,14
3.76,0.493057,0.072757,-0.133131,0.780012,0.54653,0.304772,0.049181,0.121851,-0.020256,0.222245,-0.787404,-0.179947,0.546096,4.0,2.0,15.0,SACLR,14
3.77,0.444905,0.139669,-0.172862,0.77885,0.549166,0.302999,0.034626,0.095106,-0.027685,0.22462,-0.787024,-0.179146,0.545936,4.0,2.0,15.0,SACLR,14
3.78,0.407245,0.217777,-0.187082,0.777307,0.551847,0.302091,0.031333,0.062121,-0.048093,0.226934,-0.786882,-0.1785,0.545395,4.0,2.0,15.0,SACLR,14
3.79,0.390726,0.238874,-0.18343,0.775587,0.554495,0.301663,0.033083,0.049234,-0.063382,0.229207,-0.786883,-0.177894,0.54464,4.0,2.0,15.0,SACLR,14
3.8,0.419389,0.270401,-0.132457,0.773946,0.556986,0.301288,0.036723,0.066244,-0.094333,0.231484,-0.786937,-0.177126,0.543849,4.0,2.0,15.0,SACLR,14
3.81,0.467133,0.396956,-0.019461,0.772496,0.558858,0.301543,0.02679,0.07545,-0.097457,0.23368,-0.787304,-0.175853,0.542791,4.0,2.0,15.0,SACLR,14
3.82,0.726632,0.286283,0.049773,0.771569,0.560483,0.300898,0.016196,0.061084,-0.093958,0.236262,-0.787565,-0.173754,0.541969,4.0,2.0,15.0,SACLR,14
3.83,0.927856,0.277685,0.069916,0.771116,0.562512,0.298263,-0.014128,0.030903,-0.107192,0.23962,-0.787348,-0.170924,0.541711,4.0,2.0,15.0,SACLR,14
3.84,1.083178,0.343706,0.037129,0.770497,0.565076,0.294996,-0.069921,0.007663,-0.049925,0.243707,-0.787027,-0.167593,0.541395,4.0,2.0,15.0,SACLR,14
3.85,1.082248,0.393023,-0.004374,0.769512,0.568169,0.291609,-0.118938,-0.023201,0.007921,0.248275,-0.786682,-0.164121,0.540883,4.0,2.0,15.0,SACLR,14
3.86,1.002432,0.498564,-0.027547,0.768126,0.571312,0.289112,-0.134871,-0.033134,0.042248,0.252782,-0.786574,-0.160801,0.53995,4.0,2.0,15.0,SACLR,14
3.87,0.905369,0.54116,-0.021799,0.76645,0.57429,0.287654,-0.129777,-0.045039,0.08753,0.257042,-0.786746,-0.157661,0.538612,4.0,2.0,15.0,SACLR,14
3.88,0.856463,0.530963,0.013277,0.764872,0.576849,0.286733,-0.109324,-0.037786,0.095133,0.260925,-0.787056,-0.154628,0.53717,4.0,2.0,15.0,SACLR,14
3.89,0.812437,0.534446,0.043305,0.763513,0.579006,0.286005,-0.077372,-0.007992,0.071509,0.264528,-0.787417,-0.151582,0.535745,4.0,2.0,15.0,SACLR,14
3.9,0.793688,0.505457,0.053331,0.762334,0.580913,0.285286,-0.049474,0.01122,0.03904,0.267956,-0.787771,-0.148525,0.534375,4.0,2.0,15.0,SACLR,14
3.91,0.717231,0.501895,0.030733,0.761183,0.582737,0.284637,-0.051008,-0.011723,0.022706,0.271209,-0.788105,-0.145632,0.533036,4.0,2.0,15.0,SACLR,14
3.92,0.589177,0.567221,-0.01312,0.759725,0.584499,0.284919,-0.069799,-0.016018,0.033028,0.274129,-0.788654,-0.143123,0.531407,4.0,2.0,15.0,SACLR,14
3.93,0.510267,0.624636,-0.06565,0.757792,0.586347,0.286267,-0.095439,0.001101,0.077427,0.276804,-0.789462,-0.141008,0.529383,4.0,2.0,15.0,SACLR,14
3.94,0.498954,0.69861,-0.070938,0.755459,0.588328,0.28836,-0.108044,0.051595,0.098847,0.279417,-0.790467,-0.139073,0.527016,4.0,2.0,15.0,SACLR,14
3.95,0.580181,0.72854,-0.020015,0.753094,0.590262,0.290586,-0.102169,0.112451,0.114779,0.282172,-0.791559,-0.13685,0.524487,4.0,2.0,15.0,SACLR,14
3.96,0.671862,0.738483,0.051659,0.75107,0.591947,0.292389,-0.09186,0.148577,0.116745,0.285091,-0.792596,-0.134111,0.522043,4.0,2.0,15.0,SACLR,14
3.97,0.819324,0.775366,0.10783,0.74934,0.593526,0.293627,-0.08929,0.12411,0.106565,0.28834,-0.793546,-0.130762,0.51966,4.0,2.0,15.0,SACLR,14
3.98,0.959151,0.828658,0.138186,0.74772,0.595219,0.294328,-0.106256,0.062206,0.116347,0.292085,-0.794412,-0.126779,0.517226,4.0,2.0,15.0,SACLR,14
3.99,0.98824,0.91451,0.107911,0.745918,0.597167,0.294954,-0.137672,-0.013244,0.141585,0.296218,-0.795289,-0.122442,0.514566,4.0,2.0,15.0,SACLR,14
4.0,0.849747,1.0115,0.038412,0.743467,0.599402,0.296603,-0.158293,-0.069022,0.160398,0.300325,-0.796428,-0.118335,0.511374,4.0,2.0,15.0,SACLR,14
4.01,0.619627,1.06349,-0.009974,0.74043,0.601521,0.299894,-0.164594,-0.08701,0.189135,0.30385,-0.797973,-0.114832,0.507669,4.0,2.0,15.0,SACLR,14
4.02,0.471237,1.10559,-0.068719,0.736914,0.603419,0.304703,-0.146017,-0.064402,0.188583,0.306701,-0.799884,-0.111968,0.50357,4.0,2.0,15.0,SACLR,14
4.03,0.41625,1.11544,-0.116162,0.732888,0.605496,0.31024,-0.107141,0.019123,0.143007,0.309327,-0.801948,-0.109543,0.499196,4.0,2.0,15.0,SACLR,14
4.04,0.43715,1.10918,-0.061956,0.728818,0.607522,0.31582,-0.057156,0.11457,0.090353,0.311875,-0.80401,-0.107135,0.494797,4.0,2.0,15.0,SACLR,14
4.05,0.474704,1.108867,0.015474,0.725157,0.609118,0.321127,-0.015776,0.118223,0.058802,0.314354,-0.806025,-0.104339,0.490528,4.0,2.0,15.0,SACLR,14
4.06,0.463838,1.102849,0.024511,0.721726,0.61048,0.326229,0.009612,0.068902,0.041217,0.316787,-0.80799,-0.101327,0.486345,4.0,2.0,15.0,SACLR,14
4.07,0.335258,1.14154,-0.010455,0.718097,0.61174,0.331829,-0.010563,0.014938,0.064625,0.318947,-0.810063,-0.098547,0.482036,4.0,2.0,15.0,SACLR,14
4.08,0.240877,1.273605,-0.035931,0.713926,0.612849,0.338712,-0.046201,-0.007456,0.087023,0.320748,-0.812489,-0.096009,0.477247,4.0,2.0,15.0,SACLR,14
4.09,0.173132,1.376135,-0.078331,0.708995,0.613989,0.346904,-0.070202,-0.007834,0.119603,0.322369,-0.815284,-0.093619,0.471833,4.0,2.0,15.0,SACLR,14
4.1,0.196298,1.489371,-0.078058,0.703441,0.615177,0.355989,-0.065654,0.046048,0.141554,0.323935,-0.818336,-0.091222,0.465909,4.0,2.0,15.0,SACLR,14
4.11,0.314283,1.562397,-0.066199,0.697506,0.61656,0.365157,-0.02705,0.09276,0.119844,0.325815,-0.821437,-0.088426,0.459637,4.0,2.0,15.0,SACLR,14
4.12,0.385387,1.585448,-0.127173,0.691078,0.618554,0.373901,0.023445,0.097556,0.103012,0.328203,-0.824412,-0.08541,0.453136,4.0,2.0,15.0,SACLR,14
4.13,0.347455,1.599591,-0.173209,0.684093,0.620999,0.382591,0.068897,0.11092,0.089973,0.33074,-0.827331,-0.082581,0.446447,4.0,2.0,15.0,SACLR,14
4.14,0.295207,1.621476,-0.1646,0.676774,0.623399,0.391601,0.103408,0.114745,0.064942,0.333096,-0.830311,-0.079905,0.439598,4.0,2.0,15.0,SACLR,14
4.15,0.279702,1.602188,-0.137418,0.669402,0.625554,0.400729,0.140168,0.113826,0.018812,0.335247,-0.833308,-0.077216,0.432718,4.0,2.0,15.0,SACLR,14
4.16,0.378533,1.552578,-0.097465,0.662239,0.627663,0.40924,0.171897,0.122566,-0.04602,0.337453,-0.836116,-0.074365,0.426034,4.0,2.0,15.0,SACLR,14
4.17,0.524004,1.500479,-0.046822,0.655434,0.63004,0.416481,0.170463,0.114925,-0.090629,0.34007,-0.838559,-0.071132,0.419657,4.0,2.0,15.0,SACLR,14
4.18,0.633554,1.463098,0.017599,0.649095,0.632578,0.422517,0.132964,0.105764,-0.115678,0.343037,-0.840657,-0.067486,0.413602,4.0,2.0,15.0,SACLR,14
4.19,0.744169,1.465909,0.038719,0.643015,0.635331,0.427652,0.079778,0.087371,-0.144708,0.346363,-0.842499,-0.063419,0.407684,4.0,2.0,15.0,SACLR,14
4.2,0.7726,1.433823,0.07431,0.637051,0.638323,0.432099,0.024661,0.039778,-0.133668,0.349934,-0.844127,-0.059156,0.401867,4.0,2.0,15.0,SACLR,14
4.21,0.843872,1.424685,0.104254,0.631399,0.641261,0.436027,-0.021872,0.008855,-0.116263,0.353586,-0.845594,-0.05462,0.396186,4.0,2.0,15.0,SACLR,14
4.22,0.86973,1.382408,0.066899,0.625751,0.644518,0.439354,-0.055943,-0.020906,-0.079567,0.357442,-0.846859,-0.050067,0.390587,4.0,2.0,15.0,SACLR,14
4.23,0.865958,1.299016,0.056408,0.620182,0.648022,0.442088,-0.071339,-0.018902,-0.038203,0.36137,-0.847913,-0.045695,0.385186,4.0,2.0,15.0,SACLR,14
4.24,0.816208,1.200813,0.083967,0.615029,0.651347,0.444395,-0.070565,-0.006861,-0.002607,0.365079,-0.848806,-0.041542,0.380158,4.0,2.0,15.0,SACLR,14
4.25,0.768421,1.099918,0.111533,0.610534,0.654307,0.446242,-0.058074,0.002065,0.002794,0.368514,-0.849538,-0.037506,0.375602,4.0,2.0,15.0,SACLR,14
4.26,0.725581,1.001011,0.124952,0.606623,0.656905,0.447755,-0.051508,0.003861,-0.022233,0.371642,-0.850144,-0.033658,0.37149,4.0,2.0,15.0,SACLR,14
4.27,0.669735,0.936864,0.104052,0.603025,0.659366,0.448995,-0.063383,-0.034534,-0.019979,0.374573,-0.850643,-0.030067,0.367693,4.0,2.0,15.0,SACLR,14
4.28,0.621369,0.902832,0.077879,0.599492,0.661711,0.450274,-0.08405,-0.071822,0.001218,0.377278,-0.851129,-0.026764,0.364038,4.0,2.0,15.0,SACLR,14
4.29,0.594435,0.895689,0.019474,0.595767,0.664184,0.451577,-0.100543,-0.076491,0.043296,0.379913,-0.851601,-0.023747,0.360386,4.0,2.0,15.0,SACLR,14
4.3,0.593174,0.924681,-0.0568,0.59149,0.666973,0.453085,-0.121352,-0.030086,0.088861,0.38256,-0.852115,-0.02104,0.356518,4.0,2.0,15.0,SACLR,14
4.31,0.683955,0.946111,-0.117001,0.586619,0.670394,0.454367,-0.11555,0.022553,0.109399,0.385524,-0.85255,-0.018497,0.352403,4.0,2.0,15.0,SACLR,14
4.32,0.698664,0.952903,-0.194285,0.581235,0.674503,0.455204,-0.087675,0.036358,0.131969,0.388873,-0.852844,-0.016097,0.348103,4.0,2.0,15.0,SACLR,14
4.33,0.562458,0.941586,-0.246344,0.575358,0.678742,0.456369,-0.046138,0.0224,0.177069,0.392077,-0.853221,-0.014092,0.343644,4.0,2.0,15.0,SACLR,14
4.34,0.327223,0.92597,-0.242252,0.569373,0.682226,0.458674,-0.007987,-0.016043,0.232702,0.394479,-0.85392,-0.012558,0.339189,4.0,2.0,15.0,SACLR,14
4.35,0.073965,0.942416,-0.242591,0.563423,0.684508,0.462605,0.013817,-0.064147,0.276058,0.395787,-0.855086,-0.011418,0.334739,4.0,2.0,15.0,SACLR,14
4.36,-0.129194,0.959157,-0.257823,0.557226,0.685809,0.468151,0.013483,-0.074908,0.284839,0.396147,-0.856716,-0.010659,0.330139,4.0,2.0,15.0,SACLR,14
4.37,-0.169828,0.970644,-0.24317,0.550916,0.686428,0.474668,0.017795,-0.038982,0.235065,0.395899,-0.858622,-0.010096,0.325469,4.0,2.0,15.0,SACLR,14
4.38,-0.089314,0.968094,-0.241026,0.544582,0.687126,0.480924,0.03661,-0.032341,0.149279,0.395767,-0.860449,-0.009431,0.32079,4.0,2.0,15.0,SACLR,14
4.39,-0.042093,0.925231,-0.268004,0.538194,0.688212,0.48653,0.056075,-0.036021,0.049053,0.395951,-0.862084,-0.008738,0.316161,4.0,2.0,15.0,SACLR,14
4.4,-0.06701,0.8273,-0.33042,0.531789,0.689564,0.491631,0.083414,-0.017887,-0.03959,0.396228,-0.863566,-0.008381,0.311749,4.0,2.0,15.0,SACLR,14
4.41,-0.021569,0.764958,-0.38236,0.525338,0.691212,0.496231,0.108878,0.001522,-0.107773,0.396594,-0.864896,-0.008434,0.307567,4.0,2.0,15.0,SACLR,14
4.42,0.116388,0.701973,-0.407835,0.518884,0.693521,0.499788,0.117514,0.011939,-0.118318,0.397422,-0.865921,-0.008645,0.303582,4.0,2.0,15.0,SACLR,14
4.43,0.315824,0.610785,-0.403561,0.512729,0.696688,0.501731,0.099743,0.050977,-0.036491,0.39898,-0.86648,-0.008788,0.299916,4.0,2.0,15.0,SACLR,14
4.44,0.600003,0.524444,-0.401223,0.507042,0.701064,0.501416,0.063529,0.116105,0.076725,0.401606,-0.86639,-0.008713,0.296657,4.0,2.0,15.0,SACLR,14
4.45,0.724288,0.491619,-0.437297,0.501537,0.706581,0.499203,0.013035,0.191933,0.181812,0.405186,-0.865753,-0.008511,0.293637,4.0,2.0,15.0,SACLR,14
4.46,0.774545,0.507766,-0.459456,0.495843,0.712554,0.496394,-0.038628,0.262697,0.235493,0.409102,-0.864944,-0.008351,0.290583,4.0,2.0,15.0,SACLR,14
4.47,0.899537,0.585316,-0.506985,0.489699,0.719058,0.493103,-0.087432,0.24574,0.243027,0.41343,-0.863994,-0.008104,0.287271,4.0,2.0,15.0,SACLR,14
4.48,1.037018,0.721903,-0.578357,0.482548,0.726455,0.489295,-0.118687,0.181626,0.228753,0.418406,-0.862895,-0.00772,0.283353,4.0,2.0,15.0,SACLR,14
4.49,1.292555,0.885907,-0.616147,0.474232,0.734987,0.484663,-0.121098,0.136656,0.186861,0.424285,-0.861558,-0.006987,0.278658,4.0,2.0,15.0,SACLR,14
4.5,1.491921,1.039164,-0.670446,0.464793,0.7448,0.478791,-0.083155,0.094663,0.124114,0.431269,-0.859862,-0.00574,0.27315,4.0,2.0,15.0,SACLR,14
4.51,1.455017,1.130492,-0.775398,0.454197,0.755201,0.472627,-0.014821,0.044726,0.081435,0.43867,-0.858075,-0.004453,0.266937,4.0,2.0,15.0,SACLR,14
4.52,1.187156,1.127072,-0.893331,0.442463,0.765248,0.467571,0.086361,-0.040058,0.057209,0.445525,-0.856604,-0.003787,0.260235,4.0,2.0,15.0,SACLR,14
4.53,0.726617,0.995451,-0.914307,0.430402,0.773728,0.464864,0.218157,-0.117005,0.013972,0.450836,-0.855813,-0.004072,0.253603,4.0,2.0,15.0,SACLR,14
4.54,0.363531,0.709142,-0.810853,0.419634,0.77986,0.464462,0.348875,-0.142195,-0.016434,0.454194,-0.855689,-0.005168,0.247945,4.0,2.0,15.0,SACLR,14
4.55,0.14616,0.344519,-0.689541,0.411306,0.784185,0.464631,0.42602,-0.165319,-0.050553,0.456246,-0.855727,-0.006845,0.243975,4.0,2.0,15.0,SACLR,14
4.56,-0.000106,0.011014,-0.589728,0.405503,0.787103,0.464797,0.434631,-0.203286,-0.13658,0.45731,-0.855754,-0.009124,0.241803,4.0,2.0,15.0,SACLR,14
4.57,-0.184777,-0.104308,-0.487383,0.401628,0.788881,0.465148,0.386885,-0.239366,-0.234695,0.457589,-0.855825,-0.011721,0.24091,4.0,2.0,15.0,SACLR,14
4.58,-0.252832,-0.214844,-0.37682,0.39894,0.789481,0.46644,0.306855,-0.242346,-0.254679,0.457065,-0.856165,-0.014206,0.240565,4.0,2.0,15.0,SACLR,14
4.59,-0.074148,-0.292909,-0.308601,0.397465,0.790015,0.466795,0.245632,-0.246223,-0.268431,0.456706,-0.856228,-0.016453,0.240878,4.0,2.0,15.0,SACLR,14
4.6,0.218466,-0.305983,-0.272503,0.396581,0.791481,0.46506,0.195262,-0.204415,-0.21477,0.457316,-0.855684,-0.018313,0.24152,4.0,2.0,15.0,SACLR,14
4.61,0.575698,-0.247762,-0.249254,0.395801,0.794337,0.460837,0.154995,-0.106455,-0.126852,0.459287,-0.854421,-0.019593,0.242152,4.0,2.0,15.0,SACLR,14
4.62,0.912772,-0.168854,-0.223363,0.394872,0.798708,0.454028,0.146113,0.009245,-0.033816,0.462761,-0.852413,-0.020163,0.242566,4.0,2.0,15.0,SACLR,14
4.63,1.149248,-0.11008,-0.158598,0.393929,0.804139,0.445175,0.167014,0.133606,0.064621,0.467398,-0.849815,-0.020047,0.242799,4.0,2.0,15.0,SACLR,14
4.64,1.267093,-0.033002,-0.123931,0.393169,0.810044,0.435026,0.199269,0.223861,0.137453,0.472737,-0.846842,-0.0193,0.242912,4.0,2.0,15.0,SACLR,14
4.65,1.210865,-0.006471,-0.17145,0.392053,0.815989,0.424801,0.230261,0.228963,0.162082,0.478198,-0.843837,-0.018427,0.242746,4.0,2.0,15.0,SACLR,14
4.66,1.002632,-0.095156,-0.187488,0.390733,0.821393,0.415501,0.282729,0.145373,0.12292,0.483113,-0.841087,-0.017956,0.242592,4.0,2.0,15.0,SACLR,14
4.67,0.688686,-0.230658,-0.150745,0.390006,0.825562,0.407851,0.338265,0.010482,0.120439,0.486883,-0.838809,-0.018026,0.242939,4.0,2.0,15.0,SACLR,14
4.68,0.368064,-0.353411,-0.088507,0.390207,0.828144,0.402388,0.356069,-0.117481,0.150453,0.489185,-0.837166,-0.018622,0.243934,4.0,2.0,15.0,SACLR,14
4.69,0.16626,-0.388468,-0.031386,0.391229,0.829447,0.398696,0.340522,-0.189386,0.124116,0.490339,-0.836044,-0.019472,0.245396,4.0,2.0,15.0,SACLR,14
4.7,-0.029652,-0.342275,0.000273,0.392587,0.829769,0.396684,0.285514,-0.179455,0.138488,0.4906,-0.83542,-0.020361,0.24692,4.0,2.0,15.0,SACLR,14
4.71,-0.114437,-0.283983,0.006511,0.393894,0.829409,0.396142,0.236889,-0.09862,0.105735,0.490208,-0.835237,-0.021208,0.248245,4.0,2.0,15.0,SACLR,14
4.72,-0.075154,-0.24066,-0.010915,0.39487,0.829068,0.395884,0.223141,-0.017117,0.022466,0.489812,-0.835141,-0.021951,0.249284,4.0,2.0,15.0,SACLR,14
4.73,-0.07864,-0.278826,0.008645,0.395848,0.828762,0.395548,0.246318,0.042179,-0.021448,0.489445,-0.83502,-0.022709,0.250339,4.0,2.0,15.0,SACLR,14
4.74,-0.027415,-0.396399,0.060116,0.397428,0.828433,0.394651,0.280779,0.047574,-0.018263,0.489151,-0.834731,-0.023458,0.251804,4.0,2.0,15.0,SACLR,14
4.75,-0.021266,-0.479284,0.12223,0.399941,0.827965,0.393092,0.30384,-0.003197,-0.022838,0.488876,-0.834243,-0.024191,0.253879,4.0,2.0,15.0,SACLR,14
4.76,0.027969,-0.546355,0.196341,0.403264,0.827337,0.391014,0.311595,-0.05306,-0.064796,0.488626,-0.833603,-0.024762,0.256394,4.0,2.0,15.0,SACLR,14
4.77,-0.031156,-0.662088,0.271482,0.407565,0.826415,0.388495,0.298398,-0.07463,-0.073096,0.488286,-0.832833,-0.025232,0.259479,4.0,2.0,15.0,SACLR,14
4.78,-0.213587,-0.789635,0.347623,0.412932,0.824678,0.386514,0.269318,-0.034547,-0.059152,0.487287,-0.832219,-0.025869,0.263239,4.0,2.0,15.0,SACLR,14
4.79,-0.247625,-0.899034,0.437659,0.419436,0.822087,0.385028,0.23422,-0.017872,-0.089206,0.485625,-0.831748,-0.02662,0.267684,4.0,2.0,15.0,SACLR,14
4.8,-0.098203,-1.034562,0.531348,0.427131,0.819336,0.382423,0.203713,-0.094452,-0.179893,0.484089,-0.830947,-0.027181,0.272849,4.0,2.0,15.0,SACLR,14
4.81,0.068865,-1.208728,0.620856,0.436151,0.816803,0.377631,0.171729,-0.19133,-0.251746,0.483104,-0.829493,-0.027501,0.278919,4.0,2.0,15.0,SACLR,14
4.82,-0.008397,-1.382814,0.696434,0.446408,0.814064,0.371511,0.123095,-0.240165,-0.249639,0.482182,-0.827635,-0.027843,0.285911,4.0,2.0,15.0,SACLR,14
4.83,-0.138637,-1.520233,0.805022,0.457878,0.810369,0.36558,0.074409,-0.246725,-0.2373,0.480561,-0.825825,-0.028345,0.293719,4.0,2.0,15.0,SACLR,14
4.84,-0.150787,-1.687517,0.909208,0.470657,0.80583,0.359332,0.038803,-0.294279,-0.250507,0.47843,-0.823913,-0.02887,0.302388,4.0,2.0,15.0,SACLR,14
4.85,-0.129557,-1.85654,1.017671,0.48475,0.800707,0.351975,0.011649,-0.354646,-0.307389,0.476107,-0.821661,-0.029343,0.311984,4.0,2.0,15.0,SACLR,14
4.86,-0.138931,-2.028875,1.10719,0.500048,0.794993,0.343421,-0.02463,-0.370768,-0.331367,0.473592,-0.819038,-0.029789,0.32249,4.0,2.0,15.0,SACLR,14
4.87,-0.11448,-2.171695,1.186435,0.516308,0.788697,0.333741,-0.073056,-0.349747,-0.301499,0.470853,-0.81606,-0.030268,0.333806,4.0,2.0,15.0,SACLR,14
4.88,-0.148436,-2.278965,1.223911,0.533195,0.781913,0.322979,-0.128059,-0.33335,-0.221538,0.467942,-0.812737,-0.03078,0.345746,4.0,2.0,15.0,SACLR,14
4.89,-0.261556,-2.349298,1.225685,0.550239,0.774561,0.311918,-0.174461,-0.295679,-0.155485,0.464594,-0.809299,-0.031519,0.358041,4.0,2.0,15.0,SACLR,14
4.9,-0.386371,-2.420138,1.205662,0.567023,0.766712,0.30106,-0.214698,-0.225742,-0.061864,0.460664,-0.805892,-0.032689,0.370484,4.0,2.0,15.0,SACLR,14
4.91,-0.512602,-2.484388,1.139613,0.583297,0.758596,0.290338,-0.259155,-0.155004,0.072471,0.456221,-0.802486,-0.034431,0.383006,4.0,2.0,15.0,SACLR,14
4.92,-0.597155,-2.510695,1.049661,0.598739,0.750522,0.279693,-0.293518,-0.085406,0.154419,0.451419,-0.799057,-0.036797,0.395442,4.0,2.0,15.0,SACLR,14
4.93,-0.696978,-2.45009,0.984781,0.613176,0.742561,0.269478,-0.311922,-0.031974,0.201667,0.446288,-0.795718,-0.039656,0.407539,4.0,2.0,15.0,SACLR,14
4.94,-0.635197,-2.372812,0.970743,0.626787,0.734696,0.259537,-0.292895,-0.008942,0.145722,0.441075,-0.792439,-0.042521,0.419147,4.0,2.0,15.0,SACLR,14
4.95,-0.474671,-2.391313,0.980872,0.640004,0.727079,0.248497,-0.259908,-0.044935,0.121437,0.436279,-0.788808,-0.045052,0.430596,4.0,2.0,15.0,SACLR,14
4.96,-0.33684,-2.452005,0.990774,0.653023,0.719712,0.235744,-0.219536,-0.083177,0.053944,0.431981,-0.784624,-0.047296,0.442177,4.0,2.0,15.0,SACLR,14
4.97,-0.291795,-2.531507,0.998755,0.665877,0.712433,0.221466,-0.181136,-0.075272,-0.009048,0.427957,-0.779929,-0.049427,0.454004,4.0,2.0,15.0,SACLR,14
4.98,-0.400176,-2.614363,0.973908,0.678425,0.705041,0.206535,-0.174153,-0.031442,-0.000312,0.423695,-0.77497,-0.051859,0.466063,4.0,2.0,15.0,SACLR,14
4.99,-0.389892,-2.688066,0.958987,0.690484,0.697625,0.191186,-0.18464,-0.003548,0.031958,0.419149,-0.769808,-0.054676,0.478248,4.0,2.0,15.0,SACLR,14
5.0,-0.441575,-2.713421,0.971165,0.702171,0.690139,0.175111,-0.221428,-0.073607,0.146865,0.414497,-0.764356,-0.057581,0.490548,4.0,2.0,15.0,SACLR,14
5.01,-0.634459,-2.651805,0.975508,0.713369,0.682349,0.159702,-0.259756,-0.129492,0.207623,0.409249,-0.759053,-0.060742,0.502657,4.0,2.0,15.0,SACLR,14
5.02,-0.782042,-2.557658,0.999175,0.724042,0.67416,0.145847,-0.258024,-0.134304,0.224834,0.403196,-0.754194,-0.064148,0.514304,4.0,2.0,15.0,SACLR,14
5.03,-0.700107,-2.554642,1.000178,0.734334,0.665778,0.132263,-0.198323,-0.123633,0.14264,0.396916,-0.74939,-0.067428,0.525668,4.0,2.0,15.0,SACLR,14
5.04,-0.655068,-2.682319,0.928421,0.74401,0.657781,0.11736,-0.126487,-0.07282,0.06303,0.390941,-0.744094,-0.070737,0.537108,4.0,2.0,15.0,SACLR,14
5.05,-0.600032,-2.853606,0.832152,0.75283,0.650456,0.100772,-0.060417,0.037991,-0.011737,0.385173,-0.738124,-0.074557,0.548868,4.0,2.0,15.0,SACLR,14
5.06,-0.579239,-3.012984,0.663595,0.760401,0.644224,0.082252,-0.002406,0.134844,-0.110572,0.379823,-0.731355,-0.079028,0.5609,4.0,2.0,15.0,SACLR,14
5.07,-0.726459,-3.17146,0.474696,0.766298,0.639409,0.062791,0.010939,0.248408,-0.071915,0.374581,-0.724039,-0.084635,0.572969,4.0,2.0,15.0,SACLR,14
5.08,-0.754421,-3.276409,0.315925,0.770515,0.635983,0.042816,-0.009895,0.33292,0.04976,0.369258,-0.716271,-0.091455,0.585013,4.0,2.0,15.0,SACLR,14
5.09,-0.460721,-3.319578,0.211314,0.773237,0.633763,0.021212,-0.064192,0.298717,0.187788,0.364726,-0.707759,-0.098402,0.596966,4.0,2.0,15.0,SACLR,14
5.1,-0.176501,-3.289803,0.158251,0.774711,0.632311,-0.002464,-0.14257,0.186018,0.416222,0.361381,-0.698427,-0.104726,0.608799,4.0,2.0,15.0,SACLR,14
5.11,0.057471,-3.189687,0.156153,0.77521,0.631114,-0.02728,-0.144092,0.099081,0.44032,0.358969,-0.688633,-0.110201,0.620307,4.0,2.0,15.0,SACLR,14
5.12,0.190031,-3.169026,0.17346,0.774991,0.629768,-0.052743,-0.044034,0.071649,0.265603,0.357103,-0.678545,-0.114914,0.631545,4.0,2.0,15.0,SACLR,14
5.13,0.284629,-3.251053,0.214405,0.774089,0.628112,-0.079127,0.090611,0.077378,0.10023,0.355419,-0.668,-0.119215,0.642838,4.0,2.0,15.0,SACLR,14
5.14,0.169645,-3.361145,0.282636,0.772568,0.62597,-0.106303,0.171096,0.105033,0.066554,0.353428,-0.656967,-0.123463,0.6544,4.0,2.0,15.0,SACLR,14
5.15,0.078106,-3.396351,0.384782,0.770589,0.623274,-0.133124,0.170481,0.157641,0.08335,0.350536,-0.645797,-0.128001,0.666098,4.0,2.0,15.0,SACLR,14
5.16,0.078106,-3.396351,0.384782,0.770589,0.623274,-0.133124,0.170481,0.157641,0.08335,0.350536,-0.645797,-0.128001,0.666098,4.0,2.0,15.0,SACLR,14
5.17,0.294407,-3.317488,0.434919,0.768266,0.619768,-0.16017,0.106871,0.118376,0.07144,0.347531,-0.634441,-0.131907,0.677722,4.0,2.0,15.0,SACLR,14
5.18,0.105131,-3.20147,0.376759,0.765136,0.616189,-0.186756,-0.011825,0.095206,0.184803,0.344705,-0.62312,-0.13544,0.68888,4.0,2.0,15.0,SACLR,14
5.19,-0.313502,-3.045159,0.329105,0.761082,0.613765,-0.209872,-0.088154,0.210545,0.289249,0.340961,-0.612718,-0.140145,0.699058,4.0,2.0,15.0,SACLR,14
5.2,-0.313192,-2.932228,0.356179,0.756556,0.611954,-0.230511,-0.090891,0.251052,0.272686,0.336623,-0.603002,-0.145372,0.708477,4.0,2.0,15.0,SACLR,14
5.21,-0.052924,-2.826658,0.453634,0.752089,0.60937,-0.251059,-0.050612,0.191289,0.176093,0.332464,-0.593351,-0.149683,0.717633,4.0,2.0,15.0,SACLR,14
5.22,0.282224,-2.745336,0.555814,0.747848,0.60529,-0.272666,0.003601,0.133708,-0.050683,0.328879,-0.583475,-0.152393,0.726754,4.0,2.0,15.0,SACLR,14
5.23,0.413912,-2.670196,0.645652,0.743775,0.59974,-0.295143,-0.03383,0.095679,-0.084831,0.325661,-0.573404,-0.153742,0.735878,4.0,2.0,15.0,SACLR,14
5.24,0.317722,-2.54499,0.66237,0.739721,0.593669,-0.316813,-0.093694,0.105641,-0.036611,0.322269,-0.563616,-0.154695,0.744681,4.0,2.0,15.0,SACLR,14
5.25,0.054658,-2.383706,0.629991,0.735485,0.588262,-0.336169,-0.100124,0.125697,-0.006268,0.318471,-0.554566,-0.156114,0.752769,4.0,2.0,15.0,SACLR,14
5.26,-0.154211,-2.183731,0.646659,0.731302,0.583839,-0.352603,-0.020823,0.119393,0.05347,0.314095,-0.546496,-0.158241,0.76003,4.0,2.0,15.0,SACLR,14
5.27,-0.110688,-2.002873,0.693769,0.727681,0.579444,-0.36705,0.08662,0.09501,0.060013,0.309477,-0.539263,-0.16022,0.766648,4.0,2.0,15.0,SACLR,14
5.28,-0.017358,-1.86594,0.686399,0.724458,0.574633,-0.380733,0.149886,0.09976,0.058025,0.305071,-0.532472,-0.161577,0.772851,4.0,2.0,15.0,SACLR,14
5.29,-0.044979,-1.742957,0.618936,0.721202,0.56997,-0.393702,0.159413,0.157417,0.074443,0.301029,-0.526018,-0.162647,0.77861,4.0,2.0,15.0,SACLR,14
5.3,-0.205855,-1.557112,0.602469,0.718015,0.566149,-0.404882,0.155367,0.213957,0.053152,0.29697,-0.520234,-0.16406,0.783741,4.0,2.0,15.0,SACLR,14
5.31,-0.028371,-1.329635,0.648349,0.715633,0.562215,-0.414467,0.169559,0.182841,-0.041145,0.29295,-0.515271,-0.165114,0.788298,4.0,2.0,15.0,SACLR,14
5.32,0.223484,-1.115735,0.614576,0.714117,0.557094,-0.423891,0.162653,0.069844,-0.027251,0.289725,-0.510796,-0.164747,0.792468,4.0,2.0,15.0,SACLR,14
5.33,-0.254613,-0.942366,0.536118,0.712876,0.552895,-0.43141,0.143432,0.090584,0.16902,0.286684,-0.50713,-0.164663,0.795938,4.0,2.0,15.0,SACLR,14
5.34,-0.675599,-0.798389,0.631074,0.712256,0.551075,-0.434751,0.162225,0.265682,0.332685,0.28238,-0.504871,-0.166523,0.798522,4.0,2.0,15.0,SACLR,14
5.35,-0.250893,-0.671513,0.771097,0.71296,0.548168,-0.437265,0.202308,0.227681,0.311472,0.277684,-0.503222,-0.167734,0.800952,4.0,2.0,15.0,SACLR,14
5.36,0.025639,-0.563614,0.749617,0.714484,0.542984,-0.441226,0.180413,0.048157,0.258075,0.273881,-0.501515,-0.166942,0.803494,4.0,2.0,15.0,SACLR,14
5.37,-0.094218,-0.446521,0.621716,0.715967,0.538207,-0.444662,0.108145,0.046815,0.279455,0.27061,-0.5001,-0.166037,0.805668,4.0,2.0,15.0,SACLR,14
5.38,0.018708,-0.311663,0.543108,0.717396,0.534301,-0.447064,0.061596,0.078172,0.228116,0.267816,-0.499135,-0.165324,0.807345,4.0,2.0,15.0,SACLR,14
5.39,0.117657,-0.226797,0.539653,0.719078,0.530104,-0.44935,0.04087,0.040544,0.179956,0.265621,-0.498417,-0.164028,0.808777,4.0,2.0,15.0,SACLR,14
5.4,0.136297,-0.195678,0.572739,0.721089,0.525519,-0.451509,0.032939,0.042978,0.193681,0.263514,-0.497867,-0.162399,0.810133,4.0,2.0,15.0,SACLR,14
5.41,0.093164,-0.172196,0.58197,0.723316,0.520794,-0.453418,0.0285,0.04459,0.178271,0.261306,-0.497456,-0.160714,0.811436,4.0,2.0,15.0,SACLR,14
5.42,0.050548,-0.140821,0.542963,0.725555,0.516378,-0.454888,0.02031,0.018137,0.19497,0.259035,-0.497191,-0.159238,0.812616,4.0,2.0,15.0,SACLR,14
5.43,-0.072447,-0.117336,0.465069,0.727585,0.512689,-0.455819,0.002686,-0.005608,0.26516,0.256889,-0.497078,-0.158128,0.813583,4.0,2.0,15.0,SACLR,14
5.44,-0.299926,-0.120727,0.417994,0.729289,0.510418,-0.455644,-0.008067,0.020222,0.38025,0.254521,-0.497205,-0.158006,0.814273,4.0,2.0,15.0,SACLR,14
5.45,-0.232706,-0.113162,0.43439,0.73091,0.508619,-0.455057,0.020875,0.038744,0.352259,0.251994,-0.497418,-0.158261,0.814879,4.0,2.0,15.0,SACLR,14
5.46,-0.070131,-0.089219,0.473537,0.732773,0.505959,-0.455027,0.042328,0.00782,0.256755,0.249701,-0.497564,-0.157848,0.815575,4.0,2.0,15.0,SACLR,14
5.47,-0.009166,-0.056799,0.468289,0.734814,0.502638,-0.455415,0.019077,0.022539,0.249773,0.24763,-0.497669,-0.1569,0.816325,4.0,2.0,15.0,SACLR,14
5.48,0.064825,-0.005406,0.420734,0.736907,0.499238,-0.455772,-0.009872,0.072814,0.213478,0.245836,-0.497857,-0.15573,0.816977,4.0,2.0,15.0,SACLR,14
5.49,0.067551,0.090252,0.370899,0.739083,0.495985,-0.455802,-0.018426,0.091128,0.129157,0.244442,-0.498261,-0.154387,0.817404,4.0,2.0,15.0,SACLR,14
5.5,0.186284,0.192485,0.381723,0.741576,0.492677,-0.45534,-0.022841,0.05667,0.094851,0.243284,-0.498975,-0.152819,0.817608,4.0,2.0,15.0,SACLR,14
5.51,0.144335,0.249827,0.382682,0.744482,0.488944,-0.454621,-0.021918,-0.034171,0.141679,0.242371,-0.499951,-0.150794,0.817659,4.0,2.0,15.0,SACLR,14
5.52,-0.245434,0.307507,0.427594,0.747696,0.48622,-0.452261,-0.011475,-0.023924,0.223837,0.240816,-0.501462,-0.149682,0.817397,4.0,2.0,15.0,SACLR,14
5.53,-0.207327,0.350371,0.535594,0.751531,0.483789,-0.448498,0.014873,0.025962,0.198482,0.238443,-0.503496,-0.149141,0.816942,4.0,2.0,15.0,SACLR,14
5.54,0.038481,0.341845,0.566339,0.755825,0.479882,-0.445468,0.020161,-0.043267,0.177341,0.236212,-0.505447,-0.147611,0.816663,4.0,2.0,15.0,SACLR,14
5.55,-0.116084,0.315941,0.504641,0.759846,0.475896,-0.442897,0.010586,-0.045339,0.219951,0.234229,-0.507203,-0.145933,0.816447,4.0,2.0,15.0,SACLR,14
5.56,-0.303803,0.335719,0.472444,0.763579,0.473202,-0.439348,0.022432,0.069461,0.239061,0.231924,-0.509148,-0.145239,0.816018,4.0,2.0,15.0,SACLR,14
5.57,-0.310777,0.361342,0.495757,0.767415,0.470876,-0.435144,0.055339,0.086787,0.222787,0.229405,-0.51131,-0.14488,0.815442,4.0,2.0,15.0,SACLR,14
5.58,-0.317748,0.353464,0.507181,0.771348,0.468316,-0.430932,0.082579,0.038886,0.191247,0.226836,-0.513497,-0.144414,0.814869,4.0,2.0,15.0,SACLR,14
5.59,-0.434222,0.32507,0.504861,0.775197,0.466027,-0.426485,0.091304,0.042351,0.155702,0.22403,-0.515695,-0.144277,0.81428,4.0,2.0,15.0,SACLR,14
5.6,-0.409671,0.321082,0.49529,0.778884,0.464015,-0.421935,0.068421,0.072957,0.120071,0.221084,-0.517855,-0.144426,0.813689,4.0,2.0,15.0,SACLR,14
5.61,-0.289596,0.39533,0.459986,0.782683,0.461657,-0.417469,0.018816,0.079054,0.063588,0.218482,-0.520082,-0.144154,0.813019,4.0,2.0,15.0,SACLR,14
5.62,-0.182213,0.432326,0.379923,0.786375,0.459336,-0.413067,-0.027846,0.109344,0.013516,0.216445,-0.522355,-0.143567,0.81221,4.0,2.0,15.0,SACLR,14
5.63,-0.036078,0.444772,0.323444,0.789792,0.45707,-0.409042,-0.046826,0.137611,0.004455,0.215039,-0.524527,-0.142654,0.811344,4.0,2.0,15.0,SACLR,14
5.64,0.088198,0.440479,0.307228,0.793044,0.454443,-0.405663,-0.029342,0.132059,0.004067,0.214179,-0.526526,-0.141205,0.81053,4.0,2.0,15.0,SACLR,14
5.65,0.06759,0.397815,0.301487,0.796137,0.451686,-0.402673,-0.000589,0.121785,0.03367,0.213461,-0.528367,-0.139612,0.809797,4.0,2.0,15.0,SACLR,14
5.66,-0.038219,0.352222,0.274409,0.798946,0.449289,-0.399781,0.011448,0.111365,0.062059,0.212594,-0.530061,-0.138366,0.809132,4.0,2.0,15.0,SACLR,14
5.67,-0.179016,0.337039,0.223436,0.801435,0.447754,-0.396508,-0.000364,0.118424,0.065347,0.211522,-0.531748,-0.137803,0.808401,4.0,2.0,15.0,SACLR,14
5.68,-0.156849,0.335094,0.182676,0.803676,0.44686,-0.392964,-0.02354,0.149866,0.036229,0.210451,-0.533451,-0.137651,0.807584,4.0,2.0,15.0,SACLR,14
5.69,-0.030152,0.319855,0.12929,0.805678,0.445946,-0.38989,-0.041228,0.154945,-0.005327,0.2098,-0.534993,-0.137247,0.806802,4.0,2.0,15.0,SACLR,14
5.7,0.047589,0.299995,0.091507,0.807379,0.445038,-0.387403,-0.04273,0.153183,-0.035235,0.209602,-0.536322,-0.136592,0.806082,4.0,2.0,15.0,SACLR,14
5.71,0.096681,0.273787,0.088547,0.808878,0.444055,-0.385397,-0.025248,0.148978,-0.053049,0.209643,-0.537466,-0.135765,0.805449,4.0,2.0,15.0,SACLR,14
5.72,0.083581,0.271691,0.097292,0.810352,0.442912,-0.383614,0.000287,0.126699,-0.059578,0.20971,-0.53853,-0.134829,0.804878,4.0,2.0,15.0,SACLR,14
5.73,-0.023458,0.258733,0.082212,0.81178,0.44208,-0.381547,0.022677,0.103406,-0.01683,0.209605,-0.539647,-0.134194,0.804263,4.0,2.0,15.0,SACLR,14
5.74,-0.044506,0.230532,0.037347,0.81299,0.441745,-0.379353,0.038649,0.073941,0.038563,0.209433,-0.540729,-0.133925,0.803626,4.0,2.0,15.0,SACLR,14
5.75,-0.101635,0.201612,-0.002436,0.813875,0.441889,-0.377282,0.0567,0.059256,0.018304,0.209339,-0.541684,-0.133933,0.803006,4.0,2.0,15.0,SACLR,14
5.76,-0.142869,0.200976,0.017735,0.814646,0.442371,-0.375046,0.072484,0.097501,-0.017318,0.209111,-0.542637,-0.134245,0.802369,4.0,2.0,15.0,SACLR,14
5.77,-0.055278,0.196873,0.042855,0.815556,0.442483,-0.372931,0.073085,0.10601,-0.015695,0.208846,-0.543586,-0.134346,0.801779,4.0,2.0,15.0,SACLR,14
5.78,-0.104516,0.151052,0.027744,0.816376,0.442445,-0.371177,0.074829,0.067718,-0.02256,0.208638,-0.544394,-0.134336,0.801286,4.0,2.0,15.0,SACLR,14
5.79,-0.26715,0.13253,0.019571,0.816996,0.442973,-0.369177,0.082448,0.050115,-0.028894,0.20814,-0.545177,-0.134884,0.800791,4.0,2.0,15.0,SACLR,14
5.8,-0.335671,0.169424,0.041628,0.817676,0.443897,-0.366553,0.089032,0.027752,-0.008813,0.207282,-0.546127,-0.1359,0.800194,4.0,2.0,15.0,SACLR,14
5.81,-0.364875,0.192185,0.086031,0.818639,0.444702,-0.363414,0.103113,0.002152,-0.001683,0.206188,-0.547296,-0.136968,0.799496,4.0,2.0,15.0,SACLR,14
5.82,-0.365409,0.163082,0.124481,0.81978,0.445229,-0.360182,0.111326,-0.018227,0.01959,0.204867,-0.54851,-0.138007,0.798824,4.0,2.0,15.0,SACLR,14
5.83,-0.29225,0.148354,0.173751,0.821035,0.445244,-0.357295,0.116648,-0.050331,-0.013753,0.203477,-0.549629,-0.13878,0.798276,4.0,2.0,15.0,SACLR,14
5.84,-0.246548,0.137862,0.241311,0.822492,0.444549,-0.354799,0.096529,-0.0643,-0.061827,0.202009,-0.550667,-0.139165,0.797867,4.0,2.0,15.0,SACLR,14
5.85,-0.212484,0.126287,0.304084,0.824213,0.443129,-0.352576,0.046194,-0.047866,-0.079064,0.200377,-0.551666,-0.139201,0.797582,4.0,2.0,15.0,SACLR,14
5.86,-0.216012,0.132303,0.300534,0.826042,0.441377,-0.350486,-0.018685,-0.035737,-0.055962,0.198657,-0.552641,-0.139088,0.797357,4.0,2.0,15.0,SACLR,14
5.87,-0.258685,0.151575,0.253492,0.827767,0.439985,-0.348159,-0.070947,-0.034071,-0.008942,0.196998,-0.553673,-0.139165,0.797039,4.0,2.0,15.0,SACLR,14
5.88,-0.252874,0.216229,0.224206,0.829453,0.438916,-0.345486,-0.091462,-0.039654,0.010021,0.195533,-0.554843,-0.139308,0.796561,4.0,2.0,15.0,SACLR,14
5.89,-0.242959,0.236909,0.278414,0.831366,0.437808,-0.34228,-0.08692,-0.034975,-0.001012,0.193935,-0.556239,-0.139494,0.795945,4.0,2.0,15.0,SACLR,14
5.9,-0.131365,0.209448,0.308518,0.833412,0.436002,-0.339597,-0.071403,-0.042432,-0.010866,0.192417,-0.557518,-0.139195,0.795471,4.0,2.0,15.0,SACLR,14
5.91,-0.089851,0.173753,0.324369,0.835457,0.433755,-0.337443,-0.062691,-0.017983,-0.050954,0.190976,-0.558636,-0.138581,0.795141,4.0,2.0,15.0,SACLR,14
5.92,0.030479,0.184312,0.32743,0.837489,0.431137,-0.335758,-0.077708,0.027481,-0.039074,0.18968,-0.55962,-0.137648,0.794922,4.0,2.0,15.0,SACLR,14
5.93,0.18145,0.241993,0.289772,0.839546,0.428142,-0.33445,-0.104713,0.031575,-0.016532,0.188901,-0.560576,-0.136125,0.794696,4.0,2.0,15.0,SACLR,14
5.94,0.174905,0.299447,0.229296,0.841568,0.42536,-0.332914,-0.117157,0.036844,0.015394,0.188577,-0.561673,-0.134411,0.794289,4.0,2.0,15.0,SACLR,14
5.95,0.142967,0.335638,0.186843,0.843512,0.423115,-0.33085,-0.09635,0.05357,0.059899,0.188418,-0.562947,-0.132911,0.793677,4.0,2.0,15.0,SACLR,14
5.96,0.159305,0.337247,0.168229,0.845383,0.42116,-0.328561,-0.055161,0.046034,0.064325,0.18835,-0.564287,-0.131526,0.792972,4.0,2.0,15.0,SACLR,14
5.97,0.241786,0.335692,0.171008,0.847205,0.419087,-0.326513,-0.013083,0.025219,0.031362,0.188468,-0.56556,-0.129943,0.792298,4.0,2.0,15.0,SACLR,14
5.98,0.244608,0.31065,0.17793,0.848987,0.416807,-0.324797,0.011624,0.015368,0.009383,0.188712,-0.566727,-0.128149,0.791698,4.0,2.0,15.0,SACLR,14
5.99,0.176675,0.301361,0.195689,0.850755,0.41454,-0.323066,0.014327,0.03297,0.022941,0.188762,-0.567859,-0.126501,0.79114,4.0,2.0,15.0,SACLR,14
6.0,0.162664,0.298269,0.18483,0.852524,0.412361,-0.321188,0.00943,0.033654,0.037497,0.188656,-0.569015,-0.125014,0.790571,4.0,2.0,15.0,SACLR,14
6.01,0.129501,0.30916,0.144012,0.854177,0.410462,-0.319222,-0.000189,0.005646,0.04377,0.188631,-0.570175,-0.12365,0.789955,4.0,2.0,15.0,SACLR,14
6.02,-0.023957,0.318039,0.120773,0.855719,0.409167,-0.316744,-0.005545,-0.001651,0.037905,0.188482,-0.571455,-0.12275,0.789206,4.0,2.0,15.0,SACLR,14
6.03,-0.135537,0.316084,0.139043,0.857237,0.408352,-0.313677,-0.008437,0.004139,0.059557,0.187923,-0.572863,-0.122432,0.788367,4.0,2.0,15.0,SACLR,14
6.04,-0.129011,0.313561,0.150962,0.858824,0.407532,-0.310386,0.00046,-0.00531,0.018623,0.187166,-0.574337,-0.122247,0.787504,4.0,2.0,15.0,SACLR,14
6.05,-0.100592,0.299437,0.147845,0.860388,0.406595,-0.307267,0.006479,-0.00152,-0.040511,0.186427,-0.575749,-0.121983,0.786688,4.0,2.0,15.0,SACLR,14
6.06,-0.057551,0.313386,0.123254,0.861878,0.405697,-0.304264,-0.002945,0.018955,-0.057735,0.185842,-0.577123,-0.121641,0.785872,4.0,2.0,15.0,SACLR,14
6.07,-0.038246,0.320713,0.101368,0.863305,0.404859,-0.30132,-0.016778,0.030826,-0.056956,0.185467,-0.578492,-0.121191,0.785023,4.0,2.0,15.0,SACLR,14
6.08,-0.079418,0.325489,0.072376,0.864619,0.404311,-0.298271,-0.025478,0.045793,-0.052208,0.185168,-0.579874,-0.120876,0.784123,4.0,2.0,15.0,SACLR,14
6.09,-0.081643,0.344341,0.054416,0.86587,0.404016,-0.295026,-0.032099,0.059516,-0.03911,0.184882,-0.581305,-0.120711,0.783155,4.0,2.0,15.0,SACLR,14
6.1,-0.024836,0.364631,0.026875,0.867083,0.403825,-0.291706,-0.035265,0.059035,-0.036861,0.184751,-0.582775,-0.120498,0.782126,4.0,2.0,15.0,SACLR,14
6.11,-0.138401,0.368897,-0.000648,0.868192,0.403973,-0.28818,-0.040632,0.059803,-0.040906,0.184718,-0.5843,-0.120429,0.781005,4.0,2.0,15.0,SACLR,14
6.12,-0.019232,0.353263,-0.029962,0.869185,0.404362,-0.284621,-0.03932,0.0563,-0.032472,0.184716,-0.585807,-0.120499,0.779866,4.0,2.0,15.0,SACLR,14
6.13,0.057085,0.338555,-0.030746,0.870042,0.404568,-0.281696,-0.025254,0.009418,-0.074033,0.185131,-0.587122,-0.120167,0.778829,4.0,2.0,15.0,SACLR,14
6.14,0.075497,0.319317,0.005291,0.870909,0.404524,-0.279065,-0.021651,0.013308,-0.069079,0.185572,-0.588344,-0.119661,0.777879,4.0,2.0,15.0,SACLR,14
6.15,0.153714,0.32433,0.037718,0.871892,0.404031,-0.2767,-0.028875,-0.00332,-0.029742,0.186008,-0.589509,-0.118868,0.777014,4.0,2.0,15.0,SACLR,14
6.16,0.156278,0.323104,0.039244,0.872942,0.403246,-0.274528,-0.03293,-0.035555,-0.031456,0.186544,-0.590641,-0.11781,0.776187,4.0,2.0,15.0,SACLR,14
6.17,0.12622,0.312179,0.042869,0.873968,0.402538,-0.272292,-0.029867,-0.030422,-0.016038,0.186962,-0.59177,-0.116888,0.775365,4.0,2.0,15.0,SACLR,14
6.18,0.051891,0.338234,0.057108,0.87505,0.401884,-0.269772,-0.026478,-0.017026,-0.009265,0.187252,-0.592992,-0.116081,0.774482,4.0,2.0,15.0,SACLR,14
6.19,0.129583,0.317785,0.060193,0.876178,0.401133,-0.267217,-0.014728,-0.006724,-0.013621,0.187456,-0.594225,-0.115272,0.773607,4.0,2.0,15.0,SACLR,14
6.2,0.155247,0.303252,0.044158,0.877199,0.400314,-0.265084,0.007231,-0.008133,-0.055198,0.18788,-0.595315,-0.11427,0.772815,4.0,2.0,15.0,SACLR,14
6.21,0.147236,0.292939,0.050262,0.878175,0.399503,-0.263071,0.024291,0.017077,-0.064062,0.188316,-0.596351,-0.113267,0.772057,4.0,2.0,15.0,SACLR,14
6.22,0.116781,0.289201,0.065114,0.879166,0.398687,-0.260989,0.025817,0.023447,-0.034573,0.188663,-0.597401,-0.112325,0.771298,4.0,2.0,15.0,SACLR,14
6.23,0.235223,0.270205,0.056872,0.880145,0.397678,-0.259226,0.019987,-0.001544,-0.028433,0.189105,-0.59835,-0.111194,0.770618,4.0,2.0,15.0,SACLR,14
6.24,0.136144,0.255283,0.043254,0.880998,0.396803,-0.257663,0.014922,-0.035857,-0.040814,0.189649,-0.599208,-0.110085,0.769977,4.0,2.0,15.0,SACLR,14
6.25,0.080742,0.248709,0.044152,0.881815,0.396158,-0.255854,0.01441,-0.025262,-0.037008,0.189951,-0.600105,-0.109303,0.769315,4.0,2.0,15.0,SACLR,14
6.26,0.059087,0.267859,0.063829,0.882692,0.395478,-0.253875,0.020751,-0.02121,-0.060349,0.19011,-0.601057,-0.108598,0.768632,4.0,2.0,15.0,SACLR,14
6.27,0.036658,0.255955,0.085188,0.883667,0.394716,-0.251659,0.02243,-0.001375,-0.06577,0.190075,-0.60209,-0.107974,0.76792,4.0,2.0,15.0,SACLR,14
6.28,0.073952,0.227668,0.068259,0.884583,0.393865,-0.249765,0.023467,0.002269,-0.042608,0.19011,-0.603004,-0.107254,0.767294,4.0,2.0,15.0,SACLR,14
6.29,-0.02969,0.194809,0.061336,0.885363,0.393259,-0.247951,0.022718,0.018545,-0.049123,0.190046,-0.60384,-0.106783,0.766719,4.0,2.0,15.0,SACLR,14
6.3,-0.049506,0.174837,0.051737,0.88604,0.392872,-0.246141,0.014366,0.035168,-0.01863,0.189798,-0.60462,-0.106606,0.76619,4.0,2.0,15.0,SACLR,14
6.31,-0.043136,0.18137,0.022653,0.88663,0.392654,-0.244357,0.004514,0.02005,-0.031643,0.189614,-0.605376,-0.106497,0.765653,4.0,2.0,15.0,SACLR,14
6.32,-0.049667,0.168158,-0.005304,0.88708,0.392734,-0.242589,-0.002574,0.024854,-0.055354,0.189554,-0.606106,-0.106493,0.76509,4.0,2.0,15.0,SACLR,14
6.33,-0.043378,0.14762,-0.033396,0.887394,0.393028,-0.240956,-0.004368,0.042748,-0.051524,0.189565,-0.606762,-0.106589,0.764554,4.0,2.0,15.0,SACLR,14
6.34,-0.033123,0.128118,-0.055424,0.887552,0.39352,-0.239568,-0.002482,0.044895,-0.058803,0.189691,-0.607307,-0.106744,0.764069,4.0,2.0,15.0,SACLR,14
6.35,-0.04469,0.123103,-0.076486,0.887545,0.394112,-0.23862,0.004117,0.046044,-0.065778,0.189896,-0.607665,-0.10693,0.763708,4.0,2.0,15.0,SACLR,14
6.36,0.02508,0.133086,-0.073625,0.887527,0.394755,-0.237624,0.013337,0.040029,-0.057038,0.190213,-0.608051,-0.107059,0.763303,4.0,2.0,15.0,SACLR,14
6.37,0.088183,0.126715,-0.084713,0.887472,0.395266,-0.236976,0.026331,0.026746,-0.031502,0.19082,-0.608348,-0.106887,0.762939,4.0,2.0,15.0,SACLR,14
6.38,-0.03281,0.125853,-0.085397,0.887375,0.396051,-0.236028,0.036041,0.046027,-0.027399,0.191313,-0.608722,-0.106975,0.762505,4.0,2.0,15.0,SACLR,14
6.39,0.021507,0.09955,-0.096346,0.887214,0.39692,-0.235171,0.037117,0.047111,-0.012891,0.191722,-0.609035,-0.107194,0.762121,4.0,2.0,15.0,SACLR,14
6.4,0.055553,0.090794,-0.109325,0.886961,0.397781,-0.23467,0.027803,0.011002,-0.037501,0.192322,-0.609227,-0.107275,0.761805,4.0,2.0,15.0,SACLR,14
6.41,0.085144,0.108032,-0.122088,0.88664,0.398703,-0.23432,0.010745,0.012414,-0.05427,0.19311,-0.609373,-0.107258,0.761491,4.0,2.0,15.0,SACLR,14
6.42,0.065898,0.118368,-0.101916,0.886373,0.39964,-0.233733,-0.011663,0.021747,-0.024934,0.193861,-0.609613,-0.107264,0.761107,4.0,2.0,15.0,SACLR,14
6.43,0.104143,0.086609,-0.119866,0.886054,0.400499,-0.233473,-0.024375,-0.015794,0.022352,0.194677,-0.609733,-0.107186,0.760814,4.0,2.0,15.0,SACLR,14
6.44,0.049228,0.065009,-0.126177,0.885619,0.401505,-0.233393,-0.021865,-0.048813,-0.001882,0.195488,-0.609759,-0.107223,0.76058,4.0,2.0,15.0,SACLR,14
6.45,0.004724,0.078976,-0.10789,0.885238,0.402541,-0.233053,-0.013199,-0.045729,-0.019022,0.196088,-0.609862,-0.107435,0.760313,4.0,2.0,15.0,SACLR,14
6.46,-0.04529,0.094839,-0.070935,0.885006,0.403481,-0.23231,-0.014904,-0.038811,-0.001408,0.196471,-0.610114,-0.107729,0.75997,4.0,2.0,15.0,SACLR,14
6.47,-0.058953,0.071621,-0.067434,0.884874,0.404297,-0.23139,-0.013918,-0.042862,0.011221,0.196648,-0.610427,-0.108092,0.759621,4.0,2.0,15.0,SACLR,14
6.48,-0.085473,0.038816,-0.076484,0.884705,0.405038,-0.230743,-0.010849,-0.065255,9.1e-05,0.196709,-0.610617,-0.108514,0.759392,4.0,2.0,15.0,SACLR,14
6.49,-0.070529,0.025329,-0.077889,0.884418,0.405868,-0.230382,-0.007984,-0.094207,-0.012996,0.196807,-0.610681,-0.108986,0.759248,4.0,2.0,15.0,SACLR,14
6.5,-0.13991,0.045819,-0.066777,0.884153,0.406794,-0.229764,-0.010267,-0.106364,-0.030597,0.19682,-0.610828,-0.109578,0.759041,4.0,2.0,15.0,SACLR,14
6.51,-0.139214,0.072015,-0.064632,0.884045,0.407679,-0.228608,-0.014691,-0.084787,-0.031172,0.196632,-0.611176,-0.110269,0.758709,4.0,2.0,15.0,SACLR,14
6.52,-0.101525,0.072978,-0.072255,0.883989,0.408389,-0.227557,-0.015123,-0.080691,-0.018811,0.19652,-0.611513,-0.110787,0.758392,4.0,2.0,15.0,SACLR,14
6.53,-0.091187,0.062467,-0.085172,0.883856,0.409167,-0.226673,-0.013022,-0.075167,-0.029003,0.196519,-0.611786,-0.111273,0.758101,4.0,2.0,15.0,SACLR,14
6.54,-0.032498,0.063868,-0.078343,0.883705,0.409916,-0.225905,-0.017327,-0.07407,-0.056367,0.196596,-0.612025,-0.111683,0.757827,4.0,2.0,15.0,SACLR,14
6.55,0.013967,0.105446,-0.065043,0.8837,0.410347,-0.225142,-0.033511,-0.084709,-0.088152,0.196844,-0.612327,-0.111735,0.757511,4.0,2.0,15.0,SACLR,14
6.56,0.000825,0.111991,-0.074053,0.883772,0.410687,-0.224238,-0.05879,-0.078427,-0.064199,0.197101,-0.612701,-0.111708,0.757146,4.0,2.0,15.0,SACLR,14
6.57,-0.030124,0.116154,-0.117408,0.883735,0.411289,-0.223278,-0.07447,-0.071705,-0.043323,0.197408,-0.613072,-0.11182,0.756749,4.0,2.0,15.0,SACLR,14
6.58,-0.057124,0.132808,-0.163445,0.883526,0.412381,-0.222091,-0.077999,-0.067715,-0.039567,0.197792,-0.613488,-0.112194,0.756256,4.0,2.0,15.0,SACLR,14
6.59,-0.068043,0.160539,-0.197964,0.883159,0.413941,-0.220641,-0.068874,-0.065857,-0.010422,0.198326,-0.613975,-0.112757,0.755637,4.0,2.0,15.0,SACLR,14
6.6,-0.101544,0.17345,-0.202756,0.882742,0.41577,-0.218862,-0.041419,-0.056578,-0.002268,0.198878,-0.614567,-0.113473,0.754903,4.0,2.0,15.0,SACLR,14
6.61,-0.079074,0.175906,-0.173325,0.882379,0.417501,-0.217028,-0.008157,-0.047735,-0.004255,0.199357,-0.615183,-0.114178,0.754169,4.0,2.0,15.0,SACLR,14
6.62,0.023044,0.183336,-0.134206,0.882163,0.418759,-0.215475,0.017495,-0.056866,-0.018335,0.199912,-0.615752,-0.114509,0.753507,4.0,2.0,15.0,SACLR,14
6.63,0.074659,0.184481,-0.086581,0.882122,0.419412,-0.214369,0.026997,-0.066232,-0.034044,0.200576,-0.616229,-0.114356,0.752963,4.0,2.0,15.0,SACLR,14
6.64,0.037986,0.214602,-0.042639,0.882294,0.419682,-0.213129,0.02452,-0.067555,-0.033483,0.201094,-0.61679,-0.114044,0.752413,4.0,2.0,15.0,SACLR,14
6.65,0.0058,0.248932,-0.009548,0.882693,0.419704,-0.211427,0.018827,-0.073726,-0.04193,0.201361,-0.617536,-0.113736,0.751776,4.0,2.0,15.0,SACLR,14
6.66,-0.016188,0.284642,0.013225,0.883275,0.419544,-0.209301,0.01388,-0.083454,-0.055256,0.201467,-0.618456,-0.113408,0.75104,4.0,2.0,15.0,SACLR,14
6.67,-0.068064,0.283201,0.018335,0.88397,0.41936,-0.206721,0.007448,-0.072054,-0.064031,0.201395,-0.61954,-0.11318,0.7502,4.0,2.0,15.0,SACLR,14
6.68,-0.031302,0.315785,-0.012911,0.884643,0.419247,-0.204056,0.004151,-0.03796,-0.068237,0.20139,-0.620658,-0.112943,0.749313,4.0,2.0,15.0,SACLR,14
6.69,-0.141949,0.333049,-0.020145,0.885289,0.419414,-0.200884,-0.000478,0.014714,-0.04881,0.201302,-0.621934,-0.11294,0.748278,4.0,2.0,15.0,SACLR,14
6.7,-0.042715,0.315234,-0.016193,0.885955,0.419495,-0.197755,-0.000335,0.053589,-0.016081,0.201162,-0.623194,-0.112924,0.747269,4.0,2.0,15.0,SACLR,14
6.71,0.056124,0.294059,-0.025386,0.886561,0.419355,-0.195323,-0.005167,0.032885,-0.029149,0.201372,-0.624245,-0.112503,0.746398,4.0,2.0,15.0,SACLR,14
6.72,0.059423,0.304474,-0.039017,0.887076,0.419285,-0.193121,-0.028769,0.029919,-0.048227,0.201803,-0.625223,-0.111959,0.745544,4.0,2.0,15.0,SACLR,14
6.73,0.044756,0.330681,-0.03885,0.887527,0.419539,-0.19048,-0.065628,0.030443,-0.036738,0.202273,-0.626346,-0.111582,0.74453,4.0,2.0,15.0,SACLR,14
6.74,0.029648,0.349121,-0.051681,0.888002,0.419846,-0.187569,-0.090471,0.021667,-0.053443,0.202744,-0.62757,-0.111224,0.743424,4.0,2.0,15.0,SACLR,14
6.75,-0.027877,0.396326,-0.093031,0.888401,0.420464,-0.184263,-0.102986,0.022941,-0.070467,0.203231,-0.628917,-0.111047,0.742178,4.0,2.0,15.0,SACLR,14
6.76,-0.05857,0.450872,-0.124828,0.888716,0.421526,-0.180278,-0.102583,0.036543,-0.062931,0.203723,-0.630484,-0.111137,0.7407,4.0,2.0,15.0,SACLR,14
6.77,-0.177587,0.454748,-0.170041,0.888925,0.422997,-0.175743,-0.094446,0.041008,-0.032082,0.204199,-0.632216,-0.111497,0.739036,4.0,2.0,15.0,SACLR,14
6.78,-0.218201,0.487462,-0.197612,0.888934,0.425106,-0.170535,-0.074099,0.079365,-0.04527,0.20441,-0.634094,-0.112501,0.737214,4.0,2.0,15.0,SACLR,14
6.79,0.125753,0.497292,-0.221577,0.888879,0.427048,-0.165907,-0.036217,0.098007,-0.10283,0.205309,-0.635858,-0.112833,0.735392,4.0,2.0,15.0,SACLR,14
6.8,0.140526,0.480121,-0.278958,0.888594,0.429042,-0.162248,-0.027006,0.046773,-0.047225,0.207032,-0.637346,-0.112545,0.733663,4.0,2.0,15.0,SACLR,14
6.81,0.056554,0.471218,-0.291468,0.888127,0.431453,-0.158361,-0.012609,0.09612,-0.047496,0.208644,-0.638853,-0.112633,0.73188,4.0,2.0,15.0,SACLR,14
6.82,0.093173,0.501042,-0.285538,0.887619,0.43395,-0.15434,-0.01181,0.08488,-0.047122,0.210192,-0.640391,-0.112826,0.730061,4.0,2.0,15.0,SACLR,14
6.83,0.203545,0.554119,-0.307095,0.88715,0.436326,-0.150285,-0.023471,0.04364,-0.075468,0.212072,-0.642006,-0.112634,0.728126,4.0,2.0,15.0,SACLR,14
6.84,0.168767,0.600436,-0.359643,0.886532,0.439046,-0.145945,-0.041286,0.045329,-0.050573,0.214212,-0.643728,-0.112435,0.726006,4.0,2.0,15.0,SACLR,14
6.85,0.226566,0.665721,-0.398466,0.885753,0.442168,-0.141172,-0.043239,0.066102,-0.020235,0.216582,-0.645605,-0.112288,0.723656,4.0,2.0,15.0,SACLR,14
6.86,0.236668,0.732841,-0.417403,0.884894,0.445492,-0.136015,-0.014273,0.046741,-0.005418,0.219239,-0.647649,-0.111994,0.72107,4.0,2.0,15.0,SACLR,14
6.87,0.148149,0.786764,-0.405834,0.88404,0.448935,-0.130118,0.037209,0.037485,0.007117,0.221784,-0.64995,-0.111827,0.718242,4.0,2.0,15.0,SACLR,14
6.88,0.174978,0.779246,-0.347309,0.883317,0.452133,-0.123804,0.107543,0.0253,-0.006918,0.224089,-0.652404,-0.111656,0.715322,4.0,2.0,15.0,SACLR,14
6.89,0.335684,0.699538,-0.264456,0.882838,0.454504,-0.118419,0.17661,-0.01476,-0.03864,0.226469,-0.6546,-0.110855,0.712686,4.0,2.0,15.0,SACLR,14
6.9,0.056614,0.565054,-0.167924,0.882579,0.456198,-0.113741,0.194172,-0.008871,-0.032239,0.228279,-0.656509,-0.110113,0.710464,4.0,2.0,15.0,SACLR,14
6.91,-0.084154,0.470731,-0.120933,0.882503,0.457484,-0.109072,0.145009,0.031835,0.046404,0.228957,-0.658286,-0.110108,0.7086,4.0,2.0,15.0,SACLR,14
6.92,-0.095081,0.476649,-0.149526,0.882405,0.458748,-0.104459,0.044581,-0.008949,0.045484,0.229399,-0.660002,-0.110309,0.706828,4.0,2.0,15.0,SACLR,14
6.93,-0.146057,0.514133,-0.217421,0.882055,0.460529,-0.09946,-0.050039,-0.020908,0.032444,0.229927,-0.661812,-0.110793,0.704886,4.0,2.0,15.0,SACLR,14
6.94,-0.246687,0.530336,-0.280662,0.881389,0.462962,-0.093911,-0.104534,0.010045,0.044442,0.230465,-0.663749,-0.11172,0.702738,4.0,2.0,15.0,SACLR,14
6.95,-0.220946,0.52788,-0.296202,0.880504,0.465796,-0.088018,-0.106136,0.033914,0.044973,0.230963,-0.665754,-0.112971,0.700475,4.0,2.0,15.0,SACLR,14
6.96,-0.071869,0.504139,-0.283694,0.879579,0.468499,-0.082758,-0.068346,0.010429,0.016154,0.231802,-0.667577,-0.11385,0.698317,4.0,2.0,15.0,SACLR,14
6.97,-0.043262,0.503566,-0.2928,0.878623,0.471082,-0.078123,-0.024222,-0.014066,0.005095,0.232938,-0.669216,-0.114402,0.696277,4.0,2.0,15.0,SACLR,14
6.98,-0.064797,0.517012,-0.310133,0.877579,0.473789,-0.073337,0.021484,-0.007466,0.010303,0.234094,-0.670897,-0.115018,0.694168,4.0,2.0,15.0,SACLR,14
6.99,-0.020527,0.50337,-0.306608,0.876458,0.476569,-0.068579,0.062079,-0.025275,0.007605,0.235314,-0.672562,-0.115631,0.692038,4.0,2.0,15.0,SACLR,14
7.0,0.04933,0.4791,-0.282057,0.875352,0.479195,-0.064281,0.080016,-0.052498,-0.003331,0.236661,-0.674089,-0.116035,0.690023,4.0,2.0,15.0,SACLR,14
7.01,0.088443,0.463901,-0.26057,0.874328,0.481547,-0.060517,0.068344,-0.077708,0.011353,0.238159,-0.675469,-0.116116,0.688141,4.0,2.0,15.0,SACLR,14
7.02,0.013849,0.466006,-0.228143,0.873402,0.483689,-0.056695,0.040157,-0.094254,0.061517,0.239481,-0.676868,-0.116201,0.686292,4.0,2.0,15.0,SACLR,14
7.03,-0.02633,0.484022,-0.171658,0.872682,0.48547,-0.052382,0.01956,-0.094601,0.082442,0.240373,-0.678426,-0.116393,0.684406,4.0,2.0,15.0,SACLR,14
7.04,-0.049594,0.468742,-0.103195,0.872233,0.48673,-0.047998,0.011511,-0.117757,0.104685,0.241022,-0.680036,-0.116414,0.682574,4.0,2.0,15.0,SACLR,14
7.05,-0.120568,0.415102,-0.02471,0.872104,0.487369,-0.043656,0.018735,-0.102894,0.12938,0.241204,-0.681629,-0.116421,0.680917,4.0,2.0,15.0,SACLR,14
7.06,-0.178856,0.366937,0.07208,0.872373,0.487237,-0.039563,0.040133,-0.075967,0.126584,0.240887,-0.683142,-0.116343,0.679525,4.0,2.0,15.0,SACLR,14
7.07,-0.249312,0.323933,0.212356,0.873193,0.48609,-0.035372,0.045005,-0.043096,0.134722,0.239814,-0.684693,-0.11623,0.678362,4.0,2.0,15.0,SACLR,14
7.08,-0.264433,0.29127,0.294198,0.874545,0.483922,-0.031467,0.036618,-0.030461,0.151188,0.238276,-0.686188,-0.115812,0.677465,4.0,2.0,15.0,SACLR,14
7.09,-0.438959,0.265527,0.297959,0.87606,0.481427,-0.027339,0.01336,0.011005,0.146862,0.236224,-0.687717,-0.115654,0.67666,4.0,2.0,15.0,SACLR,14
7.1,-0.578463,0.269721,0.288156,0.877531,0.478991,-0.022538,0.004763,0.080458,0.140504,0.233614,-0.689389,-0.116078,0.675791,4.0,2.0,15.0,SACLR,14
7.11,-0.618386,0.361171,0.248722,0.878901,0.476705,-0.016875,0.011571,0.128611,0.123946,0.230808,-0.69132,-0.116785,0.674659,4.0,2.0,15.0,SACLR,14
7.12,-0.643092,0.417821,0.193888,0.879982,0.474896,-0.0103,0.04403,0.168735,0.134751,0.228065,-0.693527,-0.117773,0.673154,4.0,2.0,15.0,SACLR,14
7.13,-0.40245,0.402057,0.148017,0.880799,0.473474,-0.004069,0.104385,0.186133,0.084238,0.225894,-0.695643,-0.118521,0.67157,4.0,2.0,15.0,SACLR,14
7.14,-0.071179,0.329644,0.135354,0.881438,0.472299,0.000383,0.141236,0.169929,0.000319,0.224819,-0.697253,-0.118449,0.670272,4.0,2.0,15.0,SACLR,14
7.15,0.117922,0.260358,0.150102,0.882053,0.471142,0.002929,0.108502,0.171833,-0.010451,0.224658,-0.698316,-0.117555,0.669376,4.0,2.0,15.0,SACLR,14
7.16,0.184208,0.262096,0.143698,0.882706,0.469904,0.004593,0.024307,0.205099,0.002014,0.224865,-0.699128,-0.116262,0.668685,4.0,2.0,15.0,SACLR,14
7.17,0.231381,0.320046,0.08986,0.88324,0.468879,0.006254,-0.071015,0.189537,0.005358,0.225376,-0.69996,-0.114818,0.667891,4.0,2.0,15.0,SACLR,14
7.18,0.351919,0.415393,0.022242,0.883465,0.468423,0.008293,-0.137021,0.109534,-0.002296,0.226388,-0.700939,-0.113271,0.666785,4.0,2.0,15.0,SACLR,14
7.19,0.130425,0.42226,-0.026493,0.883349,0.46859,0.010889,-0.161349,0.028359,0.055761,0.227622,-0.702078,-0.111944,0.66539,4.0,2.0,15.0,SACLR,14
7.2,-0.168401,0.390107,-0.02228,0.883116,0.468922,0.01475,-0.146102,0.028789,0.13532,0.22784,-0.703484,-0.111739,0.663863,4.0,2.0,15.0,SACLR,14
7.21,-0.251569,0.311331,0.007289,0.882979,0.469027,0.019035,-0.095366,0.017133,0.100152,0.2273,-0.704942,-0.112132,0.662433,4.0,2.0,15.0,SACLR,14
7.22,-0.240706,0.197331,0.038761,0.882995,0.468841,0.022544,-0.068862,-0.009155,0.109414,0.226523,-0.706112,-0.112599,0.661374,4.0,2.0,15.0,SACLR,14
7.23,-0.252152,0.118196,0.067357,0.883183,0.468355,0.025147,-0.06786,0.028548,0.076553,0.225569,-0.706957,-0.113074,0.660716,4.0,2.0,15.0,SACLR,14
7.24,-0.242344,0.083484,0.085624,0.883503,0.467631,0.027276,-0.084065,0.08988,0.035118,0.224466,-0.707633,-0.113551,0.660286,4.0,2.0,15.0,SACLR,14
7.25,-0.146543,0.09853,0.063076,0.883819,0.466928,0.029033,-0.104369,0.08956,0.039387,0.223574,-0.708206,-0.113843,0.659923,4.0,2.0,15.0,SACLR,14
7.26,-0.104535,0.116753,0.035607,0.883997,0.466489,0.030614,-0.100336,0.066059,0.011775,0.22305,-0.708745,-0.113963,0.659501,4.0,2.0,15.0,SACLR,14
7.27,-0.179306,0.124747,0.021728,0.884073,0.466228,0.032363,-0.0664,0.086202,0.009691,0.22254,-0.709323,-0.114203,0.65901,4.0,2.0,15.0,SACLR,14
7.28,-0.196018,0.135812,0.002149,0.884066,0.466088,0.034476,-0.013446,0.134513,0.046228,0.221877,-0.709989,-0.114688,0.658432,4.0,2.0,15.0,SACLR,14
7.29,-0.097062,0.132912,-0.03618,0.88393,0.466196,0.036448,0.045605,0.163687,0.084523,0.221461,-0.710615,-0.115114,0.657823,4.0,2.0,15.0,SACLR,14
7.3,0.021082,0.092234,-0.074356,0.883585,0.46675,0.037705,0.101766,0.18039,0.084396,0.221602,-0.71102,-0.115339,0.657298,4.0,2.0,15.0,SACLR,14
7.31,0.122828,0.046075,-0.065712,0.883158,0.467525,0.038101,0.145558,0.193624,0.064606,0.222157,-0.711159,-0.11534,0.65696,4.0,2.0,15.0,SACLR,14
7.32,0.218199,0.00871,-0.01756,0.882915,0.468024,0.03761,0.161473,0.175164,0.052036,0.222951,-0.711056,-0.114909,0.656877,4.0,2.0,15.0,SACLR,14
7.33,0.192007,-0.023764,0.010394,0.882905,0.468124,0.036605,0.144637,0.133912,0.045503,0.223716,-0.710814,-0.114219,0.657,4.0,2.0,15.0,SACLR,14
7.34,0.162309,-0.032057,-0.012533,0.882935,0.468147,0.03556,0.107024,0.09147,-7e-06,0.224327,-0.71054,-0.113636,0.657189,4.0,2.0,15.0,SACLR,14
7.35,0.349539,0.036241,-0.004034,0.882876,0.468327,0.034634,0.066358,0.021603,-0.059765,0.225094,-0.710315,-0.113005,0.657279,4.0,2.0,15.0,SACLR,14
7.36,0.243966,0.012017,-0.026298,0.88271,0.468733,0.033353,0.026638,-0.044081,-0.023389,0.226428,-0.710028,-0.111966,0.657308,4.0,2.0,15.0,SACLR,14
7.37,0.174472,0.031688,0.008098,0.88261,0.468966,0.032698,-0.017743,-0.005786,0.039781,0.227146,-0.709884,-0.111417,0.657309,4.0,2.0,15.0,SACLR,14
7.38,0.252107,0.000158,0.047227,0.882692,0.468871,0.031868,-0.030671,-0.016036,-0.02642,0.227882,-0.70972,-0.110597,0.657371,4.0,2.0,15.0,SACLR,14
7.39,0.160259,-0.026761,0.109358,0.883038,0.468294,0.030734,-0.061077,-0.061068,0.036816,0.228397,-0.709468,-0.109648,0.657623,4.0,2.0,15.0,SACLR,14
7.4,0.064915,-0.029836,0.147231,0.883636,0.467209,0.03004,-0.089798,-0.044632,0.03719,0.228335,-0.70934,-0.108887,0.657908,4.0,2.0,15.0,SACLR,14
7.41,0.055706,-0.019858,0.125268,0.884269,0.466041,0.029554,-0.105873,-0.054115,-0.004484,0.228088,-0.709267,-0.108246,0.658178,4.0,2.0,15.0,SACLR,14
7.42,0.011921,0.027336,0.080176,0.884731,0.465174,0.029403,-0.109142,-0.092585,-0.021636,0.227904,-0.709288,-0.107759,0.658299,4.0,2.0,15.0,SACLR,14
7.43,-0.083742,0.072958,0.053544,0.884999,0.464621,0.03006,-0.092824,-0.095617,-0.019165,0.2276,-0.709543,-0.107602,0.658155,4.0,2.0,15.0,SACLR,14
7.44,-0.144323,0.105121,0.064118,0.885203,0.464137,0.031491,-0.055141,-0.0805,-0.012463,0.22704,-0.710028,-0.107727,0.657805,4.0,2.0,15.0,SACLR,14
7.45,-0.130676,0.130181,0.087876,0.885478,0.463488,0.033276,-0.005031,-0.064303,-0.019101,0.226387,-0.710646,-0.107801,0.657351,4.0,2.0,15.0,SACLR,14
7.46,-0.06697,0.156333,0.111911,0.885881,0.462589,0.035018,0.037886,-0.040759,-0.024001,0.225753,-0.71128,-0.107658,0.656907,4.0,2.0,15.0,SACLR,14
7.47,0.143605,0.187513,0.148203,0.886433,0.461422,0.03641,0.070979,-0.013775,-0.04703,0.225533,-0.711887,-0.106873,0.656452,4.0,2.0,15.0,SACLR,14
7.48,0.237497,0.189695,0.145512,0.887055,0.460163,0.037194,0.086608,-0.0051,-0.039299,0.225879,-0.712376,-0.105437,0.656035,4.0,2.0,15.0,SACLR,14
7.49,0.054417,0.153208,0.11655,0.8876,0.459046,0.037985,0.091908,0.009612,0.014703,0.226098,-0.712828,-0.104253,0.655658,4.0,2.0,15.0,SACLR,14
7.5,-0.02911,0.115492,0.091664,0.888038,0.4581,0.03916,0.086892,0.016036,0.03306,0.225818,-0.713317,-0.103723,0.655306,4.0,2.0,15.0,SACLR,14
7.51,0.016643,0.063825,0.083737,0.888429,0.457275,0.039922,0.068098,-0.03398,0.009196,0.225555,-0.713646,-0.103298,0.655106,4.0,2.0,15.0,SACLR,14
7.52,-0.066615,0.026553,0.075136,0.888797,0.456517,0.040403,0.030286,-0.065465,0.002535,0.225225,-0.713855,-0.103018,0.655036,4.0,2.0,15.0,SACLR,14
7.53,-0.117759,0.035897,0.074417,0.889163,0.455742,0.041104,-0.012881,-0.047737,-0.005429,0.224604,-0.714099,-0.103027,0.654982,4.0,2.0,15.0,SACLR,14
7.54,-0.043104,0.089895,0.047745,0.889446,0.455109,0.041974,-0.057278,-0.051529,-0.027493,0.224133,-0.71441,-0.102978,0.654811,4.0,2.0,15.0,SACLR,14
7.55,-0.02962,0.170984,0.009672,0.889553,0.454784,0.043209,-0.089672,-0.066371,-0.048825,0.223982,-0.714868,-0.102805,0.654391,4.0,2.0,15.0,SACLR,14
7.56,-0.072606,0.23472,-0.013793,0.889468,0.454757,0.045191,-0.098377,-0.068755,-0.072351,0.223903,-0.715569,-0.102745,0.65366,4.0,2.0,15.0,SACLR,14
7.57,-0.101103,0.281436,-0.017392,0.889274,0.454858,0.047917,-0.084602,-0.094964,-0.078847,0.223767,-0.716512,-0.102805,0.652663,4.0,2.0,15.0,SACLR,14
7.58,-0.161105,0.288888,-0.004439,0.889077,0.454904,0.051035,-0.058022,-0.132699,-0.084711,0.223507,-0.717581,-0.102934,0.651557,4.0,2.0,15.0,SACLR,14
7.59,-0.18832,0.296155,0.030684,0.889029,0.454601,0.054448,-0.030784,-0.132076,-0.112721,0.222984,-0.718751,-0.103056,0.650426,4.0,2.0,15.0,SACLR,14
7.6,-0.163338,0.331806,0.080295,0.889146,0.453908,0.058201,-0.010865,-0.106602,-0.09676,0.222136,-0.720034,-0.103205,0.649273,4.0,2.0,15.0,SACLR,14
7.61,-0.185093,0.319693,0.073597,0.88932,0.453093,0.061776,-0.006538,-0.077224,-0.070779,0.221525,-0.721303,-0.103009,0.648104,4.0,2.0,15.0,SACLR,14
7.62,-0.144458,0.366917,0.044358,0.8894,0.452405,0.06556,-0.033336,-0.029142,-0.019051,0.22084,-0.722616,-0.102987,0.646877,4.0,2.0,15.0,SACLR,14
7.63,-0.066168,0.43037,0.00877,0.889286,0.452053,0.069417,-0.042759,-0.001827,-0.074834,0.220612,-0.723986,-0.102727,0.645463,4.0,2.0,15.0,SACLR,14
7.64,-0.056195,0.586476,-0.038725,0.888897,0.452092,0.073991,-0.042797,0.025783,-0.096162,0.220674,-0.725607,-0.102419,0.643667,4.0,2.0,15.0,SACLR,14
7.65,-0.076014,0.735895,-0.10379,0.888034,0.452726,0.080214,-0.001743,0.06676,-0.098616,0.221039,-0.727785,-0.102156,0.64112,4.0,2.0,15.0,SACLR,14
7.66,0.011318,0.802255,-0.107496,0.886853,0.453713,0.087385,0.081546,0.096077,-0.080228,0.22161,-0.730281,-0.101891,0.63812,4.0,2.0,15.0,SACLR,14
7.67,0.278746,0.702433,-0.022739,0.885817,0.454501,0.09358,0.209734,0.103574,-0.140348,0.222771,-0.732544,-0.100839,0.635282,4.0,2.0,15.0,SACLR,14
7.68,0.281833,0.377521,0.103633,0.885431,0.454501,0.097156,0.307363,0.115674,-0.11362,0.224051,-0.733995,-0.099141,0.633421,4.0,2.0,15.0,SACLR,14
7.69,0.130525,0.06052,0.231007,0.885952,0.453264,0.09819,0.305927,0.156295,0.022019,0.224379,-0.734544,-0.097671,0.632897,4.0,2.0,15.0,SACLR,14
7.7,0.070405,-0.104092,0.262059,0.887122,0.451128,0.097461,0.19291,0.165572,0.067029,0.223917,-0.734453,-0.096483,0.633349,4.0,2.0,15.0,SACLR,14
7.71,0.06658,-0.054725,0.163705,0.888193,0.449253,0.096362,0.011343,0.115948,0.02989,0.223428,-0.734198,-0.095569,0.633955,4.0,2.0,15.0,SACLR,14
7.72,0.091134,0.13787,-0.006337,0.888512,0.448626,0.09634,-0.147271,0.061964,-0.029415,0.223477,-0.734266,-0.094995,0.633946,4.0,2.0,15.0,SACLR,14
7.73,0.166502,0.367628,-0.154171,0.887876,0.449515,0.098043,-0.237943,0.024347,-0.067083,0.224335,-0.734893,-0.094625,0.632971,4.0,2.0,15.0,SACLR,14
7.74,0.257993,0.511218,-0.205929,0.886571,0.451414,0.101082,-0.244756,0.010484,-0.092644,0.225927,-0.735987,-0.094151,0.631202,4.0,2.0,15.0,SACLR,14
7.75,0.341355,0.503367,-0.164064,0.885145,0.453467,0.10434,-0.169019,0.000497,-0.112381,0.227886,-0.737194,-0.093352,0.629204,4.0,2.0,15.0,SACLR,14
7.76,0.442968,0.389427,-0.059701,0.884115,0.454951,0.106579,-0.056281,-0.031535,-0.124783,0.229967,-0.738124,-0.091994,0.627555,4.0,2.0,15.0,SACLR,14
7.77,0.091266,0.199747,0.011781,0.883659,0.455523,0.107915,0.010125,-0.063113,-0.001607,0.231253,-0.738716,-0.090865,0.626549,4.0,2.0,15.0,SACLR,14
7.78,-0.15644,0.151231,0.043775,0.883576,0.455258,0.109701,0.019623,-0.042599,0.103861,0.231054,-0.739334,-0.090752,0.62591,4.0,2.0,15.0,SACLR,14
7.79,-0.230252,0.171951,-0.000742,0.883467,0.454897,0.112049,-0.004027,-0.05414,0.089383,0.230346,-0.740082,-0.091124,0.625233,4.0,2.0,15.0,SACLR,14
7.8,-0.328528,0.202199,-0.068078,0.883056,0.454952,0.115024,-0.040374,-0.05003,0.123959,0.229527,-0.740986,-0.091937,0.624344,4.0,2.0,15.0,SACLR,14
7.81,-0.378262,0.224446,-0.075482,0.882422,0.455244,0.118673,-0.047736,0.005617,0.121927,0.228503,-0.742064,-0.093153,0.623257,4.0,2.0,15.0,SACLR,14
7.82,-0.170441,0.217409,-0.018318,0.881896,0.455385,0.121998,-0.013885,0.040084,0.054226,0.227723,-0.743079,-0.093982,0.622208,4.0,2.0,15.0,SACLR,14
7.83,0.003624,0.175765,0.037989,0.881662,0.455254,0.124162,0.026892,0.048347,-0.008195,0.22751,-0.743806,-0.093985,0.621416,4.0,2.0,15.0,SACLR,14
7.84,0.102479,0.142255,0.043863,0.881629,0.454989,0.125359,0.046395,0.077039,-0.030999,0.227669,-0.744271,-0.093492,0.620876,4.0,2.0,15.0,SACLR,14
7.85,0.122392,0.11915,0.001208,0.881546,0.454973,0.125996,0.036407,0.09506,-0.021687,0.228111,-0.744558,-0.092907,0.620457,4.0,2.0,15.0,SACLR,14
7.86,0.095091,0.141374,-0.063236,0.881216,0.455427,0.126672,0.000361,0.096057,0.004554,0.228687,-0.744829,-0.092553,0.619973,4.0,2.0,15.0,SACLR,14
7.87,0.071905,0.173157,-0.117511,0.880558,0.456411,0.127698,-0.033802,0.085505,0.018832,0.229397,-0.745184,-0.092464,0.619296,4.0,2.0,15.0,SACLR,14
7.88,0.125006,0.246195,-0.168062,0.879601,0.457833,0.129197,-0.047814,0.073997,0.014663,0.230287,-0.745683,-0.092496,0.61836,4.0,2.0,15.0,SACLR,14
7.89,0.109725,0.274067,-0.188925,0.87837,0.459662,0.131058,-0.033095,0.066217,0.00676,0.23133,-0.746286,-0.092663,0.617218,4.0,2.0,15.0,SACLR,14
7.9,0.281304,0.238098,-0.186356,0.8771,0.461687,0.132439,0.0118,0.058836,-0.0158,0.232927,-0.746786,-0.092356,0.616056,4.0,2.0,15.0,SACLR,14
7.91,0.205794,0.134603,-0.137935,0.876084,0.463456,0.132987,0.034362,0.041381,0.071801,0.234379,-0.747006,-0.092064,0.615283,4.0,2.0,15.0,SACLR,14
7.92,0.247131,0.061168,-0.08022,0.875421,0.464759,0.132806,0.045142,0.020196,0.05416,0.235641,-0.746995,-0.091655,0.614874,4.0,2.0,15.0,SACLR,14
7.93,0.217057,0.038978,-0.024705,0.87511,0.465556,0.13206,0.025448,-0.046168,0.034643,0.236739,-0.746819,-0.091055,0.614756,4.0,2.0,15.0,SACLR,14
7.94,-0.059518,0.0617,0.003688,0.874993,0.465773,0.132073,-0.006264,-0.087157,0.065864,0.237131,-0.746859,-0.090763,0.614599,4.0,2.0,15.0,SACLR,14
7.95,-0.182049,0.107184,0.006865,0.874891,0.465563,0.133483,-0.02609,-0.072298,0.056032,0.236628,-0.74729,-0.091094,0.61422,4.0,2.0,15.0,SACLR,14
7.96,-0.166168,0.09486,-0.00409,0.874741,0.465338,0.135231,-0.019487,-0.081976,0.031181,0.23604,-0.747827,-0.091492,0.613734,4.0,2.0,15.0,SACLR,14
7.97,-0.283738,0.022741,-0.01225,0.874578,0.465201,0.136752,0.003764,-0.061042,0.043408,0.235325,-0.748256,-0.092139,0.613389,4.0,2.0,15.0,SACLR,14
7.98,-0.385176,-0.013423,0.006586,0.874529,0.464812,0.138379,0.032179,0.002259,0.041186,0.234055,-0.748662,-0.093243,0.613212,4.0,2.0,15.0,SACLR,14
7.99,-0.342666,-0.023922,0.030356,0.874623,0.464145,0.140017,0.038311,0.022855,0.040357,0.23259,-0.749071,-0.09435,0.613101,4.0,2.0,15.0,SACLR,14
8.0,-0.246819,-0.026502,0.028921,0.874802,0.463443,0.141216,0.022812,0.009716,0.042408,0.231374,-0.749369,-0.095155,0.613073,4.0,2.0,15.0,SACLR,14
8.01,-0.182295,-0.036154,0.018574,0.874943,0.462951,0.141954,0.004665,0.02031,0.009871,0.230487,-0.749536,-0.09577,0.613106,4.0,2.0,15.0,SACLR,14
8.02,-0.119926,-0.02664,0.003859,0.875013,0.462682,0.142396,-0.008925,0.048762,-0.014436,0.229881,-0.749622,-0.096252,0.613153,4.0,2.0,15.0,SACLR,14
8.03,-0.038621,-0.00371,-0.004346,0.875063,0.46248,0.142752,-0.023485,0.061949,-0.010305,0.229539,-0.749712,-0.096475,0.613136,4.0,2.0,15.0,SACLR,14
8.04,-0.002161,0.005699,-0.003171,0.875101,0.46236,0.142905,-0.035562,0.052167,0.005319,0.229434,-0.749761,-0.09649,0.613113,4.0,2.0,15.0,SACLR,14
8.05,-0.048883,-0.003101,0.002544,0.875143,0.462211,0.143128,-0.037939,0.028161,-0.000458,0.229288,-0.749831,-0.096527,0.613077,4.0,2.0,15.0,SACLR,14
8.06,-0.086534,-0.020795,0.021811,0.875213,0.46199,0.143415,-0.033965,-0.001983,0.017809,0.228977,-0.749905,-0.096699,0.613076,4.0,2.0,15.0,SACLR,14
8.07,-0.080638,-0.029435,0.043534,0.875395,0.46157,0.143657,-0.02815,-0.031226,0.050267,0.228528,-0.749962,-0.096874,0.613145,4.0,2.0,15.0,SACLR,14
8.08,-0.048122,-0.030312,0.053587,0.875655,0.461034,0.143793,-0.01985,-0.030492,0.030829,0.228098,-0.75,-0.096931,0.613249,4.0,2.0,15.0,SACLR,14
8.09,-0.02249,-0.026693,0.069275,0.875954,0.46049,0.143712,-0.0122,0.003056,0.030574,0.227791,-0.749985,-0.096847,0.613396,4.0,2.0,15.0,SACLR,14
8.1,-0.027656,-0.025986,0.076312,0.876259,0.459965,0.143535,-0.009178,0.03886,0.064534,0.227528,-0.749941,-0.096729,0.613566,4.0,2.0,15.0,SACLR,14
8.11,-0.038105,-0.046601,0.057429,0.876511,0.459558,0.143301,-0.008606,0.04177,0.067118,0.227281,-0.749867,-0.096697,0.613753,4.0,2.0,15.0,SACLR,14
8.12,-0.072134,-0.062778,0.047337,0.87665,0.459371,0.143051,-0.011553,-0.00147,0.042358,0.227043,-0.749765,-0.096844,0.613943,4.0,2.0,15.0,SACLR,14
8.13,-0.179829,-0.049364,0.043379,0.876804,0.459058,0.14311,-0.019962,-0.042676,0.044298,0.226516,-0.749736,-0.097216,0.614113,4.0,2.0,15.0,SACLR,14
8.14,-0.238772,-0.033782,0.053355,0.877035,0.458386,0.143844,-0.033377,-0.059262,0.071564,0.225542,-0.749907,-0.097786,0.614173,4.0,2.0,15.0,SACLR,14
8.15,-0.178959,-0.013078,0.049783,0.877301,0.457574,0.14481,-0.046597,-0.071542,0.08186,0.224536,-0.750166,-0.098263,0.614149,4.0,2.0,15.0,SACLR,14
8.16,-0.149761,0.009665,0.049782,0.877526,0.456886,0.145614,-0.050622,-0.062278,0.068451,0.223772,-0.750395,-0.09856,0.6141,4.0,2.0,15.0,SACLR,14
8.17,-0.138673,0.050746,0.06073,0.877703,0.456225,0.146619,-0.044192,-0.027269,0.060107,0.22306,-0.750698,-0.098805,0.61395,4.0,2.0,15.0,SACLR,14
8.18,-0.101079,0.100248,0.074903,0.877816,0.455562,0.147993,-0.024422,-0.023128,0.072634,0.22248,-0.751147,-0.098869,0.613601,4.0,2.0,15.0,SACLR,14
8.19,-0.192055,0.114717,0.081202,0.877904,0.45479,0.149838,0.00146,-0.036409,0.075764,0.221802,-0.751752,-0.098932,0.613095,4.0,2.0,15.0,SACLR,14
8.2,-0.312562,0.123698,0.07841,0.878046,0.453719,0.15223,0.035192,-0.036025,0.064033,0.220645,-0.752499,-0.099299,0.612536,4.0,2.0,15.0,SACLR,14
8.21,-0.333415,0.115295,0.066077,0.878231,0.452427,0.154985,0.058262,-0.045765,0.067534,0.219176,-0.753341,-0.099845,0.611939,4.0,2.0,15.0,SACLR,14
8.22,-0.347659,0.121005,0.052261,0.878341,0.451198,0.157916,0.069535,-0.044276,0.067639,0.217671,-0.754228,-0.100486,0.611278,4.0,2.0,15.0,SACLR,14
8.23,-0.306594,0.130204,0.065066,0.878415,0.450021,0.160835,0.072452,-0.008081,0.040688,0.216214,-0.75511,-0.101123,0.610602,4.0,2.0,15.0,SACLR,14
8.24,-0.166544,0.171107,0.097326,0.878547,0.448805,0.163491,0.070168,0.01636,0.032523,0.215062,-0.755957,-0.101365,0.60992,4.0,2.0,15.0,SACLR,14
8.25,-0.043515,0.206872,0.126385,0.87872,0.44763,0.165766,0.061862,0.020784,0.023092,0.214422,-0.756753,-0.101034,0.609213,4.0,2.0,15.0,SACLR,14
8.26,-0.042758,0.226345,0.153638,0.878949,0.446333,0.168035,0.057926,0.030397,-0.002263,0.213901,-0.75758,-0.100448,0.608464,4.0,2.0,15.0,SACLR,14
8.27,-0.141183,0.224995,0.158055,0.879268,0.444771,0.170491,0.062337,0.020057,-0.02895,0.213213,-0.758471,-0.099836,0.607697,4.0,2.0,15.0,SACLR,14
8.28,0.061358,0.275644,0.169041,0.879627,0.443078,0.173026,0.058132,-0.009804,-0.049994,0.212657,-0.759423,-0.098941,0.606848,4.0,2.0,15.0,SACLR,14
8.29,-0.09693,0.207694,0.182533,0.880054,0.441318,0.175338,0.037731,-0.02077,0.009324,0.212063,-0.760299,-0.098049,0.606103,4.0,2.0,15.0,SACLR,14
