secondsElapsed,wristMotion_rotationRateX,wristMotion_rotationRateY,wristMotion_rotationRateZ,wristMotion_gravityX,wristMotion_gravityY,wristMotion_gravityZ,wristMotion_accelerationX,wristMotion_accelerationY,wristMotion_accelerationZ,wristMotion_quaternionW,wristMotion_quaternionX,wristMotion_quaternionY,wristMotion_quaternionZ,weight,set,reps,activity,activityEncoded
0.0,,,,,,,,,,,,,,18.0,3.0,13.0,MTE,22
0.01,,,,,,,,,,,,,,18.0,3.0,13.0,MTE,22
0.02,,,,,,,,,,,,,,18.0,3.0,13.0,MTE,22
0.03,,,,,,,,,,,,,,18.0,3.0,13.0,MTE,22
0.04,,,,,,,,,,,,,,18.0,3.0,13.0,MTE,22
0.05,,,,,,,,,,,,,,18.0,3.0,13.0,MTE,22
0.06,,,,,,,,,,,,,,18.0,3.0,13.0,MTE,22
0.07,,,,,,,,,,,,,,18.0,3.0,13.0,MTE,22
0.08,,,,,,,,,,,,,,18.0,3.0,13.0,MTE,22
0.09,,,,,,,,,,,,,,18.0,3.0,13.0,MTE,22
0.1,,,,,,,,,,,,,,18.0,3.0,13.0,MTE,22
0.11,,,,,,,,,,,,,,18.0,3.0,13.0,MTE,22
0.12,,,,,,,,,,,,,,18.0,3.0,13.0,MTE,22
0.13,,,,,,,,,,,,,,18.0,3.0,13.0,MTE,22
0.14,,,,,,,,,,,,,,18.0,3.0,13.0,MTE,22
0.15,,,,,,,,,,,,,,18.0,3.0,13.0,MTE,22
0.16,,,,,,,,,,,,,,18.0,3.0,13.0,MTE,22
0.17,,,,,,,,,,,,,,18.0,3.0,13.0,MTE,22
0.18,,,,,,,,,,,,,,18.0,3.0,13.0,MTE,22
0.19,,,,,,,,,,,,,,18.0,3.0,13.0,MTE,22
0.2,,,,,,,,,,,,,,18.0,3.0,13.0,MTE,22
0.21,,,,,,,,,,,,,,18.0,3.0,13.0,MTE,22
0.22,0.042899,0.035734,0.05125,0.051893,-0.104448,-0.993176,-0.004209,0.008165,0.000561,0.998292,0.052313,0.025991,-0.0,18.0,3.0,13.0,MTE,22
0.23,0.026917,0.033858,0.056282,0.052198,-0.104831,-0.993119,-0.003934,-0.002912,0.000962,0.998278,0.052498,0.026158,0.000275,18.0,3.0,13.0,MTE,22
0.24,0.005133,0.022804,0.058376,0.052409,-0.105015,-0.993089,-0.000606,-0.006908,0.000535,0.998271,0.052584,0.02628,0.000563,18.0,3.0,13.0,MTE,22
0.25,0.002373,0.019899,0.057053,0.052558,-0.105077,-0.993074,-8.3e-05,-0.005977,0.0058,0.998267,0.052607,0.02637,0.000859,18.0,3.0,13.0,MTE,22
0.26,0.018131,0.029392,0.061134,0.052747,-0.105215,-0.99305,-0.00163,-0.001856,0.010002,0.99826,0.052668,0.026481,0.001173,18.0,3.0,13.0,MTE,22
0.27,0.026263,0.037611,0.063206,0.053017,-0.105452,-0.99301,-0.002725,-0.001558,0.01013,0.99825,0.052779,0.026634,0.00149,18.0,3.0,13.0,MTE,22
0.28,0.032128,0.037869,0.066442,0.053321,-0.105779,-0.992959,-0.001976,-0.005458,0.009301,0.998237,0.052934,0.026804,0.001816,18.0,3.0,13.0,MTE,22
0.29,0.022854,0.041498,0.076209,0.053643,-0.106094,-0.992908,-0.001381,-0.010879,0.006031,0.998223,0.053083,0.026985,0.002179,18.0,3.0,13.0,MTE,22
0.3,0.020326,0.043214,0.0841,0.053973,-0.106364,-0.992861,-0.000536,-0.014944,0.010684,0.99821,0.053207,0.027173,0.002591,18.0,3.0,13.0,MTE,22
0.31,-0.009032,0.039032,0.08692,0.054304,-0.106474,-0.992831,0.000932,-0.025636,0.01189,0.998202,0.05325,0.027363,0.003032,18.0,3.0,13.0,MTE,22
0.32,-0.033134,0.037578,0.093358,0.054586,-0.106308,-0.992834,0.005,-0.033509,0.011862,0.998201,0.053153,0.027528,0.003485,18.0,3.0,13.0,MTE,22
0.33,-0.046285,0.035804,0.108956,0.054847,-0.105956,-0.992857,0.009148,-0.038941,0.014402,0.998205,0.052962,0.027686,0.004005,18.0,3.0,13.0,MTE,22
0.34,-0.040058,0.039131,0.111112,0.055086,-0.105579,-0.992884,0.010893,-0.031765,0.018015,0.998209,0.052757,0.027834,0.00457,18.0,3.0,13.0,MTE,22
0.35,-0.037049,0.051076,0.113783,0.055409,-0.105265,-0.992899,0.008739,-0.023367,0.017024,0.99821,0.052582,0.028026,0.005151,18.0,3.0,13.0,MTE,22
0.36,-0.046474,0.062638,0.122704,0.055834,-0.10493,-0.992911,0.011,-0.027349,0.024527,0.998209,0.052396,0.028269,0.005762,18.0,3.0,13.0,MTE,22
0.37,-0.073701,0.071252,0.131593,0.056348,-0.104421,-0.992936,0.010028,-0.039378,0.031235,0.998212,0.05212,0.02856,0.006431,18.0,3.0,13.0,MTE,22
0.38,-0.107242,0.070945,0.141843,0.054403,-0.121424,-0.991109,0.009272,-0.036474,0.035161,0.997747,0.060642,0.027716,0.007454,18.0,3.0,13.0,MTE,22
0.39,-0.128791,0.075607,0.154481,0.055454,-0.125913,-0.99049,0.000317,-0.036333,0.03645,0.997585,0.062874,0.028317,0.008297,18.0,3.0,13.0,MTE,22
0.4,-0.141555,0.095598,0.165582,0.057334,-0.129,-0.989986,-0.009268,-0.02928,0.032894,0.997451,0.064395,0.029331,0.009159,18.0,3.0,13.0,MTE,22
0.41,-0.170301,0.107045,0.182062,0.059515,-0.131066,-0.989586,-0.02062,-0.023323,0.035805,0.997342,0.065399,0.030498,0.010086,18.0,3.0,13.0,MTE,22
0.42,-0.211153,0.111239,0.203729,0.061432,-0.130645,-0.989524,-0.024308,-0.026932,0.033332,0.997316,0.065148,0.031524,0.011103,18.0,3.0,13.0,MTE,22
0.43,-0.247401,0.103727,0.217472,0.062639,-0.128586,-0.989718,-0.017168,-0.028961,0.026858,0.997351,0.064069,0.032188,0.012225,18.0,3.0,13.0,MTE,22
0.44,-0.271048,0.099132,0.21625,0.063955,-0.126951,-0.989845,-0.020376,-0.01227,0.018974,0.997368,0.063201,0.03291,0.013378,18.0,3.0,13.0,MTE,22
0.45,-0.249886,0.101516,0.209742,0.065041,-0.126601,-0.989819,-0.026558,0.018218,0.003308,0.997346,0.06298,0.033525,0.014535,18.0,3.0,13.0,MTE,22
0.46,-0.20472,0.103547,0.219698,0.065762,-0.127899,-0.989605,-0.030927,0.046341,-0.008397,0.997274,0.063589,0.033974,0.01573,18.0,3.0,13.0,MTE,22
0.47,-0.152831,0.103294,0.223651,0.065593,-0.129943,-0.989349,-0.027202,0.067702,-0.017761,0.997189,0.064575,0.03399,0.016994,18.0,3.0,13.0,MTE,22
0.48,-0.112491,0.100421,0.198624,0.065343,-0.130495,-0.989293,-0.018178,0.088747,-0.024562,0.997154,0.064815,0.033946,0.018175,18.0,3.0,13.0,MTE,22
0.49,-0.0764,0.097275,0.176947,0.065068,-0.130695,-0.989285,-0.008427,0.100269,-0.031284,0.997133,0.064883,0.033878,0.019211,18.0,3.0,13.0,MTE,22
0.5,-0.05613,0.088278,0.155664,0.064967,-0.130955,-0.989257,0.001195,0.110752,-0.031647,0.997108,0.064983,0.033889,0.020123,18.0,3.0,13.0,MTE,22
0.51,-0.053362,0.075481,0.124754,0.065153,-0.131114,-0.989224,0.005587,0.119609,-0.030475,0.997084,0.065036,0.034034,0.020885,18.0,3.0,13.0,MTE,22
0.52,-0.047514,0.060199,0.092971,0.065268,-0.130872,-0.989249,0.01153,0.12013,-0.031748,0.997077,0.064893,0.034127,0.021472,18.0,3.0,13.0,MTE,22
0.53,-0.033165,0.046538,0.070725,0.065205,-0.130184,-0.989344,0.018719,0.11256,-0.028021,0.997091,0.064531,0.034117,0.021926,18.0,3.0,13.0,MTE,22
0.54,-0.009067,0.033447,0.056813,0.064928,-0.129241,-0.989485,0.030058,0.103637,-0.027528,0.997119,0.064048,0.033988,0.022268,18.0,3.0,13.0,MTE,22
0.55,0.042118,0.029151,0.037421,0.064609,-0.128283,-0.989631,0.037808,0.093463,-0.027306,0.99715,0.063562,0.033831,0.022502,18.0,3.0,13.0,MTE,22
0.56,0.103527,0.032377,0.027658,0.064434,-0.127369,-0.98976,0.043202,0.081501,-0.025331,0.99718,0.063099,0.033741,0.022646,18.0,3.0,13.0,MTE,22
0.57,0.159621,0.030812,0.02861,0.064417,-0.126486,-0.989875,0.041968,0.063925,-0.020074,0.997206,0.062651,0.033728,0.022752,18.0,3.0,13.0,MTE,22
0.58,0.2097,0.027648,0.049112,0.064584,-0.125265,-0.990019,0.041922,0.048284,-0.024431,0.997239,0.06203,0.033804,0.022878,18.0,3.0,13.0,MTE,22
0.59,0.223856,0.027033,0.067159,0.064884,-0.122733,-0.990317,0.047649,0.039236,-0.016184,0.99731,0.060747,0.033935,0.023065,18.0,3.0,13.0,MTE,22
0.6,0.205475,0.02649,0.064595,0.065552,-0.118554,-0.990781,0.050292,0.026437,0.00099,0.997422,0.058632,0.034228,0.023251,18.0,3.0,13.0,MTE,22
0.61,0.169577,0.026866,0.062442,0.066604,-0.115151,-0.991113,0.04422,0.003731,0.019235,0.997501,0.056904,0.034722,0.023426,18.0,3.0,13.0,MTE,22
0.62,0.122147,0.025933,0.067892,0.067822,-0.113238,-0.99125,0.026264,-0.014509,0.037912,0.99753,0.055922,0.03532,0.023646,18.0,3.0,13.0,MTE,22
0.63,0.097819,0.026215,0.068819,0.068952,-0.112142,-0.991297,0.006244,-0.021083,0.04188,0.997535,0.055349,0.035888,0.02391,18.0,3.0,13.0,MTE,22
0.64,0.104671,0.030466,0.079227,0.070035,-0.111637,-0.991278,-0.004437,-0.023129,0.038748,0.997523,0.055072,0.036441,0.02422,18.0,3.0,13.0,MTE,22
0.65,0.131978,0.04083,0.090147,0.07105,-0.111837,-0.991183,-0.008352,-0.020076,0.026813,0.99749,0.055147,0.036974,0.024593,18.0,3.0,13.0,MTE,22
0.66,0.148676,0.05311,0.092626,0.072124,-0.112576,-0.991022,-0.008815,-0.01868,0.015436,0.997439,0.055491,0.037546,0.025011,18.0,3.0,13.0,MTE,22
0.67,0.146167,0.05475,0.08937,0.073424,-0.113499,-0.990821,-0.009291,-0.01997,0.006217,0.997379,0.055924,0.038234,0.02542,18.0,3.0,13.0,MTE,22
0.68,0.122765,0.047354,0.095357,0.07488,-0.114433,-0.990605,-0.012227,-0.0299,0.002675,0.997314,0.056361,0.039,0.025829,18.0,3.0,13.0,MTE,22
0.69,0.081089,0.027661,0.094729,0.076191,-0.115512,-0.99038,-0.016697,-0.031918,-0.005562,0.997246,0.05687,0.039699,0.026264,18.0,3.0,13.0,MTE,22
0.7,0.048355,0.011752,0.094544,0.077026,-0.116778,-0.990167,-0.019028,-0.021711,-0.008002,0.997181,0.057478,0.040162,0.026723,18.0,3.0,13.0,MTE,22
0.71,0.035812,0.005355,0.087301,0.077112,-0.11819,-0.989992,-0.017435,-0.010366,-0.005644,0.997124,0.058168,0.040253,0.02719,18.0,3.0,13.0,MTE,22
0.72,0.033907,0.002842,0.07618,0.076539,-0.119885,-0.989833,-0.013734,0.002851,0.001521,0.997072,0.05901,0.040017,0.027628,18.0,3.0,13.0,MTE,22
0.73,0.049363,0.001445,0.066281,0.075539,-0.121519,-0.989711,-0.008202,0.012495,0.00175,0.997031,0.059828,0.039563,0.028022,18.0,3.0,13.0,MTE,22
0.74,0.05822,0.005653,0.05904,0.074638,-0.122997,-0.989596,-0.00608,0.015575,0.005908,0.996992,0.06057,0.039155,0.028372,18.0,3.0,13.0,MTE,22
0.75,0.052913,0.009962,0.043702,0.074005,-0.124297,-0.989481,-0.00351,0.013564,0.021357,0.996955,0.061221,0.038875,0.028654,18.0,3.0,13.0,MTE,22
0.76,0.035008,0.008486,0.027801,0.073472,-0.12582,-0.989329,-0.00348,0.008556,0.025248,0.996911,0.061986,0.038644,0.028861,18.0,3.0,13.0,MTE,22
0.77,0.004241,0.002902,0.019085,0.072837,-0.12701,-0.989224,0.002785,-0.007008,0.032314,0.99688,0.062587,0.038354,0.029015,18.0,3.0,13.0,MTE,22
0.78,-0.011688,0.001859,0.009408,0.072183,-0.127464,-0.989213,0.006476,-0.010781,0.030137,0.996874,0.06282,0.03804,0.029125,18.0,3.0,13.0,MTE,22
0.79,-0.001943,0.003541,0.007862,0.07158,-0.127416,-0.989263,0.010161,-0.004603,0.017324,0.996885,0.062802,0.037741,0.029191,18.0,3.0,13.0,MTE,22
0.8,0.013674,0.010994,0.015157,0.071206,-0.126923,-0.989353,0.016928,-0.002365,0.015385,0.996906,0.062557,0.03755,0.029258,18.0,3.0,13.0,MTE,22
0.81,0.01319,0.018571,0.020596,0.07115,-0.126099,-0.989463,0.026522,-0.000915,0.018546,0.99693,0.062139,0.037514,0.029345,18.0,3.0,13.0,MTE,22
0.82,-0.009158,0.01605,0.013087,0.071207,-0.125161,-0.989578,0.033575,0.000527,0.010116,0.996957,0.061664,0.037532,0.029417,18.0,3.0,13.0,MTE,22
0.83,-0.045773,0.016385,0.017911,0.071412,-0.124271,-0.989675,0.03363,0.001408,0.007513,0.996979,0.061211,0.037625,0.029491,18.0,3.0,13.0,MTE,22
0.84,-0.089787,0.013914,0.021551,0.07154,-0.123436,-0.98977,0.034722,6.9e-05,0.011804,0.997,0.060785,0.037683,0.029608,18.0,3.0,13.0,MTE,22
0.85,-0.132108,0.018982,0.015025,0.071897,-0.122954,-0.989805,0.026522,-0.002077,0.022809,0.997004,0.060532,0.037862,0.029737,18.0,3.0,13.0,MTE,22
0.86,-0.164436,0.021381,0.009109,0.07233,-0.122125,-0.989876,0.013928,-0.006095,0.032158,0.997019,0.060105,0.038072,0.029841,18.0,3.0,13.0,MTE,22
0.87,-0.178817,0.027665,0.004501,0.072793,-0.120737,-0.990012,-0.002328,-0.012488,0.036551,0.997051,0.059398,0.038286,0.029911,18.0,3.0,13.0,MTE,22
0.88,-0.177113,0.03105,0.009719,0.073416,-0.119214,-0.990151,-0.012609,-0.019016,0.031868,0.997084,0.058621,0.038578,0.029983,18.0,3.0,13.0,MTE,22
0.89,-0.167465,0.035431,0.023658,0.07419,-0.117746,-0.990269,-0.016878,-0.026999,0.023334,0.99711,0.057868,0.03895,0.030107,18.0,3.0,13.0,MTE,22
0.9,-0.159019,0.026692,0.026909,0.074997,-0.116348,-0.990373,-0.011292,-0.031296,0.016542,0.997131,0.057147,0.039341,0.030263,18.0,3.0,13.0,MTE,22
0.91,-0.167217,0.0268,0.025632,0.075766,-0.114939,-0.990479,-0.004233,-0.034124,0.013825,0.997153,0.056422,0.039713,0.030425,18.0,3.0,13.0,MTE,22
0.92,-0.18514,0.029197,0.028595,0.076588,-0.113463,-0.990586,-0.00745,-0.032365,0.014252,0.997175,0.055662,0.04011,0.03059,18.0,3.0,13.0,MTE,22
0.93,-0.181722,0.02693,0.028976,0.077292,-0.112004,-0.990697,-0.012381,-0.025356,0.018133,0.997197,0.054911,0.040449,0.03077,18.0,3.0,13.0,MTE,22
0.94,-0.18444,0.025367,0.041966,0.07778,-0.110847,-0.990789,-0.017965,-0.019737,-0.01092,0.997213,0.054314,0.040687,0.031002,18.0,3.0,13.0,MTE,22
0.95,-0.182734,0.031646,0.047729,0.0779,-0.109841,-0.990892,-0.020451,0.002007,0.018525,0.997229,0.053794,0.040747,0.0313,18.0,3.0,13.0,MTE,22
0.96,-0.177803,0.038911,0.041772,0.077881,-0.10899,-0.990987,-0.018616,0.016965,0.015584,0.997244,0.053355,0.040739,0.031601,18.0,3.0,13.0,MTE,22
0.97,-0.187003,0.043207,0.037865,0.077838,-0.108286,-0.991068,-0.016681,0.029672,0.010004,0.997255,0.05299,0.040721,0.031885,18.0,3.0,13.0,MTE,22
0.98,-0.178357,0.036361,0.036004,0.077913,-0.107598,-0.991137,-0.015154,0.045403,0.000201,0.997263,0.052632,0.04076,0.032153,18.0,3.0,13.0,MTE,22
0.99,-0.135676,0.040722,0.035499,0.078154,-0.106885,-0.991195,-0.0137,0.05496,-0.011948,0.99727,0.052261,0.040881,0.032391,18.0,3.0,13.0,MTE,22
1.0,-0.100718,0.04211,0.029828,0.078463,-0.106306,-0.991233,-0.008028,0.064055,-0.026681,0.997273,0.051957,0.041037,0.032597,18.0,3.0,13.0,MTE,22
1.01,-0.065403,0.042143,0.01574,0.07873,-0.105877,-0.991258,0.003667,0.071865,-0.033248,0.997275,0.051732,0.041171,0.032743,18.0,3.0,13.0,MTE,22
1.02,-0.038929,0.023146,0.012005,0.078906,-0.105575,-0.991276,0.008465,0.071029,-0.045803,0.997276,0.051573,0.041259,0.032845,18.0,3.0,13.0,MTE,22
1.03,-0.020782,0.009634,0.012648,0.078947,-0.10534,-0.991298,0.015017,0.061959,-0.056081,0.997278,0.051451,0.04128,0.032931,18.0,3.0,13.0,MTE,22
1.04,-0.004057,-0.001335,0.014195,0.078847,-0.105129,-0.991328,0.021037,0.054607,-0.042363,0.997284,0.051343,0.04123,0.032999,18.0,3.0,13.0,MTE,22
1.05,0.013322,-0.010692,0.009307,0.078666,-0.104952,-0.991361,0.02044,0.050692,-0.026431,0.997291,0.051256,0.041138,0.033043,18.0,3.0,13.0,MTE,22
1.06,0.034051,-0.001238,-0.002376,0.078487,-0.104749,-0.991397,0.01775,0.043897,-0.012113,0.997299,0.051156,0.041045,0.03305,18.0,3.0,13.0,MTE,22
1.07,0.06421,0.017077,0.000879,0.078439,-0.104552,-0.991421,0.010657,0.035155,0.005475,0.997307,0.051059,0.041016,0.033016,18.0,3.0,13.0,MTE,22
1.08,0.082666,0.034407,0.010162,0.078569,-0.10415,-0.991453,0.00128,0.025262,0.018965,0.997315,0.050855,0.041074,0.033014,18.0,3.0,13.0,MTE,22
1.09,0.077259,0.039015,0.026387,0.078946,-0.103142,-0.991529,-0.008404,0.013878,0.023435,0.997332,0.050341,0.041248,0.033068,18.0,3.0,13.0,MTE,22
1.1,0.046678,0.033472,0.038727,0.079376,-0.101917,-0.991621,-0.019699,0.005771,0.020308,0.997351,0.049715,0.041447,0.033175,18.0,3.0,13.0,MTE,22
1.11,0.042292,0.036773,0.059697,0.079838,-0.100706,-0.991708,-0.022969,-0.000216,0.006158,0.997366,0.049091,0.041668,0.033383,18.0,3.0,13.0,MTE,22
1.12,0.048072,0.039407,0.073141,0.080441,-0.099709,-0.99176,-0.023145,0.012886,0.005432,0.997369,0.048568,0.041968,0.033696,18.0,3.0,13.0,MTE,22
1.13,0.072903,0.049184,0.081125,0.081134,-0.09895,-0.991779,-0.028674,0.036175,-0.016338,0.997362,0.048161,0.042318,0.034043,18.0,3.0,13.0,MTE,22
1.14,0.118491,0.055272,0.08464,0.081882,-0.098811,-0.991732,-0.03136,0.035121,-0.022978,0.997337,0.048063,0.042709,0.034423,18.0,3.0,13.0,MTE,22
1.15,0.166873,0.058115,0.100324,0.082526,-0.099483,-0.991611,-0.028876,0.036647,-0.03262,0.997292,0.048372,0.043065,0.034844,18.0,3.0,13.0,MTE,22
1.16,0.215254,0.049169,0.114493,0.082925,-0.100952,-0.991429,-0.019693,0.051346,-0.049159,0.997229,0.049081,0.043318,0.035346,18.0,3.0,13.0,MTE,22
1.17,0.259557,0.041436,0.10966,0.083085,-0.103193,-0.991185,-0.008424,0.055464,-0.052348,0.997148,0.05018,0.043467,0.035884,18.0,3.0,13.0,MTE,22
1.18,0.30863,0.042738,0.096662,0.083025,-0.105945,-0.9909,0.001051,0.056872,-0.053351,0.99706,0.051542,0.043514,0.036347,18.0,3.0,13.0,MTE,22
1.19,0.345121,0.032363,0.106434,0.082848,-0.109144,-0.990567,0.009468,0.042112,-0.052813,0.99696,0.053132,0.043511,0.036795,18.0,3.0,13.0,MTE,22
1.2,0.359107,0.020988,0.116963,0.082568,-0.112223,-0.990247,0.017194,0.030817,-0.046817,0.996862,0.054663,0.043459,0.037285,18.0,3.0,13.0,MTE,22
1.21,0.381752,0.00699,0.133036,0.082113,-0.114988,-0.989967,0.024058,0.01689,-0.053642,0.996771,0.056037,0.043316,0.03782,18.0,3.0,13.0,MTE,22
1.22,0.398167,-0.010596,0.15979,0.081484,-0.117991,-0.989666,0.035657,0.001307,-0.052128,0.996671,0.057529,0.043098,0.038459,18.0,3.0,13.0,MTE,22
1.23,0.41699,-0.010682,0.183171,0.080785,-0.121237,-0.989331,0.052515,0.008963,-0.031528,0.996557,0.059141,0.04286,0.039231,18.0,3.0,13.0,MTE,22
1.24,0.421974,-0.00068,0.18842,0.08029,-0.12445,-0.988972,0.05559,0.023132,-0.002849,0.996434,0.06073,0.04273,0.040058,18.0,3.0,13.0,MTE,22
1.25,0.438225,0.006565,0.181434,0.080111,-0.128816,-0.988427,0.047544,0.03354,0.018441,0.996264,0.062894,0.042787,0.040888,18.0,3.0,13.0,MTE,22
1.26,0.489162,0.025417,0.191516,0.08002,-0.133516,-0.987811,0.040494,0.04001,0.022769,0.996075,0.065224,0.0429,0.041723,18.0,3.0,13.0,MTE,22
1.27,0.554735,0.052623,0.199316,0.080159,-0.138813,-0.987069,0.037136,0.053775,0.017495,0.995851,0.06785,0.043149,0.042603,18.0,3.0,13.0,MTE,22
1.28,0.638741,0.06997,0.195141,0.080503,-0.144846,-0.986174,0.037478,0.05578,-0.006944,0.995588,0.070843,0.043524,0.043485,18.0,3.0,13.0,MTE,22
1.29,0.716788,0.089654,0.202774,0.081036,-0.151702,-0.985099,0.044621,0.052703,-0.030251,0.99528,0.074249,0.044019,0.044351,18.0,3.0,13.0,MTE,22
1.3,0.770988,0.083046,0.241582,0.08154,-0.159244,-0.983866,0.055438,0.056476,-0.048574,0.994927,0.078,0.044531,0.045318,18.0,3.0,13.0,MTE,22
1.31,0.811209,0.086378,0.271653,0.081992,-0.167236,-0.982502,0.064767,0.055572,-0.058071,0.994531,0.081973,0.04505,0.046454,18.0,3.0,13.0,MTE,22
1.32,0.84564,0.07991,0.284119,0.082373,-0.175615,-0.981007,0.070855,0.029177,-0.087002,0.994097,0.086144,0.045563,0.047682,18.0,3.0,13.0,MTE,22
1.33,0.821032,0.059194,0.335849,0.082528,-0.18402,-0.979452,0.093085,-0.006394,-0.094721,0.99364,0.090329,0.045987,0.049049,18.0,3.0,13.0,MTE,22
1.34,0.786447,0.052152,0.414101,0.082405,-0.192172,-0.977895,0.120537,-0.041241,-0.089777,0.993163,0.094382,0.046308,0.050744,18.0,3.0,13.0,MTE,22
1.35,0.760446,0.043944,0.483799,0.081998,-0.200091,-0.97634,0.154406,-0.066862,-0.08175,0.992663,0.098309,0.046533,0.05282,18.0,3.0,13.0,MTE,22
1.36,0.7342,0.042209,0.545905,0.081363,-0.207773,-0.974787,0.194562,-0.083075,-0.064168,0.992141,0.102111,0.046686,0.055218,18.0,3.0,13.0,MTE,22
1.37,0.711092,0.039414,0.609443,0.080545,-0.215271,-0.973227,0.224783,-0.110687,-0.052209,0.991593,0.105814,0.046796,0.057933,18.0,3.0,13.0,MTE,22
1.38,0.70379,0.032986,0.691187,0.079521,-0.222702,-0.971638,0.243584,-0.135177,-0.039242,0.991009,0.109477,0.04686,0.061,18.0,3.0,13.0,MTE,22
1.39,0.672164,0.039072,0.790957,0.078254,-0.230041,-0.97003,0.258263,-0.158936,-0.041262,0.990378,0.113083,0.046876,0.064539,18.0,3.0,13.0,MTE,22
1.4,0.559694,-0.007676,0.8857,0.076503,-0.236664,-0.968575,0.282186,-0.180328,-0.033836,0.98974,0.116323,0.046707,0.068568,18.0,3.0,13.0,MTE,22
1.41,0.479095,-0.045165,0.964424,0.074039,-0.242367,-0.967355,0.30296,-0.18816,-0.034415,0.989115,0.119106,0.046218,0.073008,18.0,3.0,13.0,MTE,22
1.42,0.462571,-0.061563,1.044275,0.071045,-0.247634,-0.966245,0.3116,-0.164018,-0.012026,0.988466,0.121678,0.045518,0.077831,18.0,3.0,13.0,MTE,22
1.43,0.507572,-0.088042,1.120037,0.067675,-0.253036,-0.965087,0.300031,-0.135194,-0.00293,0.987749,0.124329,0.044708,0.083033,18.0,3.0,13.0,MTE,22
1.44,0.50666,-0.126772,1.175573,0.063677,-0.258767,-0.963839,0.293561,-0.099952,-0.035932,0.986955,0.127176,0.043668,0.088539,18.0,3.0,13.0,MTE,22
1.45,0.397586,-0.107262,1.209304,0.059416,-0.263898,-0.962719,0.28409,-0.014926,-0.042439,0.986143,0.129739,0.042524,0.094242,18.0,3.0,13.0,MTE,22
1.46,0.260339,-0.097022,1.280545,0.055205,-0.267843,-0.96188,0.29471,-0.008402,-0.063053,0.985339,0.131701,0.041411,0.100239,18.0,3.0,13.0,MTE,22
1.47,0.001791,-0.196135,1.361456,0.050328,-0.269874,-0.96158,0.357372,-0.082543,-0.114073,0.984591,0.132724,0.039931,0.106628,18.0,3.0,13.0,MTE,22
1.48,-0.183687,-0.354229,1.478432,0.043817,-0.269553,-0.961988,0.41146,-0.110314,-0.078997,0.983933,0.132647,0.03756,0.113443,18.0,3.0,13.0,MTE,22
1.49,-0.198349,-0.399116,1.616824,0.036,-0.268229,-0.962682,0.426692,-0.101155,-0.016734,0.983226,0.132155,0.034552,0.12086,18.0,3.0,13.0,MTE,22
1.5,-0.084221,-0.395698,1.6921,0.027739,-0.267333,-0.963205,0.399889,-0.044862,0.047388,0.982355,0.13195,0.031414,0.128768,18.0,3.0,13.0,MTE,22
1.51,0.113567,-0.375978,1.762808,0.019407,-0.267877,-0.963258,0.375811,0.026239,0.063752,0.981253,0.132533,0.028394,0.137007,18.0,3.0,13.0,MTE,22
1.52,0.26059,-0.373871,1.844868,0.01099,-0.270043,-0.962786,0.351131,0.044518,0.058779,0.979896,0.134,0.025517,0.145592,18.0,3.0,13.0,MTE,22
1.53,0.265088,-0.441391,1.913469,0.002027,-0.27279,-0.962071,0.334902,0.02044,0.030171,0.978347,0.135862,0.022493,0.154509,18.0,3.0,13.0,MTE,22
1.54,0.186243,-0.554895,1.987179,-0.008075,-0.27491,-0.961436,0.311405,-0.01017,-0.024694,0.976692,0.137565,0.01892,0.163678,18.0,3.0,13.0,MTE,22
1.55,0.1833,-0.659658,2.098215,-0.019555,-0.276349,-0.960859,0.275368,0.009488,-0.054187,0.974896,0.139122,0.014691,0.173225,18.0,3.0,13.0,MTE,22
1.56,0.236224,-0.705523,2.194631,-0.032087,-0.277791,-0.960105,0.232465,0.067083,-0.063042,0.972873,0.140878,0.010041,0.183224,18.0,3.0,13.0,MTE,22
1.57,0.243897,-0.744844,2.226952,-0.045206,-0.279312,-0.959136,0.195581,0.109802,-0.075059,0.970635,0.142847,0.005188,0.193483,18.0,3.0,13.0,MTE,22
1.58,0.143478,-0.821633,2.212424,-0.05888,-0.28007,-0.958172,0.178737,0.116099,-0.098682,0.968292,0.144617,2e-05,0.203707,18.0,3.0,13.0,MTE,22
1.59,-0.031654,-0.968701,2.223305,-0.073647,-0.279162,-0.957416,0.183572,0.099932,-0.131421,0.96592,0.145801,-0.005852,0.213789,18.0,3.0,13.0,MTE,22
1.6,-0.19783,-1.12668,2.300863,-0.089944,-0.276187,-0.956886,0.187585,0.103213,-0.120125,0.963482,0.146274,-0.01268,0.223931,18.0,3.0,13.0,MTE,22
1.61,-0.223199,-1.236951,2.352839,-0.107678,-0.271768,-0.95632,0.171155,0.15397,-0.088129,0.960875,0.146377,-0.020345,0.234262,18.0,3.0,13.0,MTE,22
1.62,-0.107646,-1.307405,2.343404,-0.126194,-0.267367,-0.955296,0.140797,0.22069,-0.073849,0.958029,0.146787,-0.028385,0.244596,18.0,3.0,13.0,MTE,22
1.63,0.075972,-1.335523,2.301434,-0.144985,-0.264043,-0.953552,0.106686,0.26772,-0.041245,0.954923,0.147974,-0.036439,0.254751,18.0,3.0,13.0,MTE,22
1.64,0.236713,-1.353927,2.255838,-0.163783,-0.262056,-0.951053,0.063747,0.277559,-0.018857,0.951568,0.150027,-0.044333,0.26466,18.0,3.0,13.0,MTE,22
1.65,0.298592,-1.401532,2.207322,-0.1827,-0.260807,-0.947945,0.020927,0.246739,-0.007652,0.948018,0.152655,-0.052192,0.274288,18.0,3.0,13.0,MTE,22
1.66,0.233654,-1.455171,2.173536,-0.201927,-0.259186,-0.944483,-0.006585,0.202103,0.006571,0.944348,0.155329,-0.06026,0.283635,18.0,3.0,13.0,MTE,22
1.67,0.093778,-1.503469,2.155831,-0.22145,-0.256174,-0.940922,-0.022584,0.156916,0.029606,0.94062,0.157549,-0.068683,0.292738,18.0,3.0,13.0,MTE,22
1.68,-0.085701,-1.559239,2.143662,-0.241286,-0.251244,-0.937367,-0.025392,0.127084,0.045323,0.936861,0.15906,-0.077565,0.30162,18.0,3.0,13.0,MTE,22
1.69,-0.242453,-1.595592,2.123345,-0.261325,-0.244296,-0.933825,-0.01492,0.126574,0.071642,0.93308,0.159803,-0.086894,0.310279,18.0,3.0,13.0,MTE,22
1.7,-0.317378,-1.628441,2.091395,-0.281421,-0.235909,-0.930134,-0.003522,0.150918,0.091663,0.929248,0.160043,-0.096536,0.318692,18.0,3.0,13.0,MTE,22
1.71,-0.31987,-1.640745,2.045709,-0.301413,-0.226856,-0.926114,0.008231,0.171009,0.126965,0.925333,0.16013,-0.10631,0.326827,18.0,3.0,13.0,MTE,22
1.72,-0.269155,-1.649048,2.006979,-0.321107,-0.217792,-0.92166,0.013902,0.168659,0.157149,0.921305,0.160345,-0.116015,0.334705,18.0,3.0,13.0,MTE,22
1.73,-0.20295,-1.653904,1.996562,-0.34052,-0.209051,-0.916703,0.020375,0.151907,0.176758,0.917111,0.160864,-0.125585,0.342432,18.0,3.0,13.0,MTE,22
1.74,-0.211423,-1.657804,1.981681,-0.35971,-0.200239,-0.911325,0.03273,0.144789,0.19346,0.912748,0.161508,-0.135103,0.350076,18.0,3.0,13.0,MTE,22
1.75,-0.269436,-1.679374,1.953187,-0.378669,-0.190763,-0.90566,0.032127,0.133084,0.205403,0.908298,0.161966,-0.144696,0.357525,18.0,3.0,13.0,MTE,22
1.76,-0.331708,-1.716766,1.92447,-0.397503,-0.180534,-0.899666,0.026867,0.092598,0.202553,0.90378,0.162206,-0.154455,0.364712,18.0,3.0,13.0,MTE,22
1.77,-0.446727,-1.763608,1.890101,-0.41618,-0.16935,-0.893373,0.024777,0.074792,0.193803,0.899221,0.162111,-0.164419,0.371603,18.0,3.0,13.0,MTE,22
1.78,-0.57902,-1.812305,1.850046,-0.434844,-0.156883,-0.886735,0.015258,0.07122,0.207368,0.894647,0.161537,-0.174752,0.378119,18.0,3.0,13.0,MTE,22
1.79,-0.706706,-1.842221,1.794584,-0.453564,-0.143129,-0.879655,0.000699,0.061158,0.214235,0.890066,0.160483,-0.185519,0.3842,18.0,3.0,13.0,MTE,22
1.8,-0.867054,-1.870688,1.728505,-0.472179,-0.128087,-0.872147,-0.019856,0.062093,0.240998,0.885513,0.158896,-0.196669,0.389795,18.0,3.0,13.0,MTE,22
1.81,-1.043811,-1.85631,1.643644,-0.490364,-0.111656,-0.864335,-0.044899,0.077263,0.240983,0.88107,0.156615,-0.208096,0.39482,18.0,3.0,13.0,MTE,22
1.82,-1.219027,-1.854554,1.526137,-0.507948,-0.093992,-0.856244,-0.077852,0.088041,0.206052,0.876811,0.153624,-0.219722,0.399155,18.0,3.0,13.0,MTE,22
1.83,-1.383005,-1.879714,1.393718,-0.525065,-0.07531,-0.847723,-0.113789,0.062447,0.182181,0.872771,0.149995,-0.231603,0.402657,18.0,3.0,13.0,MTE,22
1.84,-1.534312,-1.935048,1.272155,-0.542014,-0.055882,-0.83851,-0.151178,0.024083,0.155023,0.86889,0.145903,-0.243839,0.40532,18.0,3.0,13.0,MTE,22
1.85,-1.74379,-2.013055,1.135627,-0.559037,-0.035578,-0.828379,-0.18933,0.055216,0.153925,0.865141,0.141304,-0.2566,0.407088,18.0,3.0,13.0,MTE,22
1.86,-2.007815,-2.037365,0.912507,-0.57598,-0.014234,-0.81734,-0.239374,0.164014,0.179691,0.861675,0.135951,-0.269903,0.407659,18.0,3.0,13.0,MTE,22
1.87,-2.157035,-2.022995,0.596464,-0.592533,0.007194,-0.805514,-0.319027,0.308663,0.140704,0.858708,0.130038,-0.283431,0.406667,18.0,3.0,13.0,MTE,22
1.88,-2.072541,-1.968562,0.286068,-0.608416,0.026872,-0.793163,-0.398023,0.41986,0.075832,0.856279,0.124308,-0.296591,0.404187,18.0,3.0,13.0,MTE,22
1.89,-1.903482,-1.937781,0.0303,-0.623713,0.043522,-0.780441,-0.446645,0.479488,-0.002412,0.854228,0.119469,-0.309042,0.400643,18.0,3.0,13.0,MTE,22
1.9,-1.784621,-1.950434,-0.24822,-0.638828,0.057091,-0.767229,-0.454297,0.501686,-0.032454,0.852454,0.115664,-0.320948,0.396151,18.0,3.0,13.0,MTE,22
1.91,-1.778225,-1.964373,-0.616949,-0.653925,0.067894,-0.753507,-0.454001,0.508202,-0.04822,0.851123,0.112602,-0.332516,0.390311,18.0,3.0,13.0,MTE,22
1.92,-1.754709,-1.991335,-1.016679,-0.669197,0.075734,-0.739216,-0.461891,0.489909,-0.065426,0.850363,0.110238,-0.34386,0.382741,18.0,3.0,13.0,MTE,22
1.93,-1.677672,-1.9849,-1.30498,-0.684666,0.080484,-0.724399,-0.469066,0.446081,-0.066876,0.85004,0.108691,-0.354946,0.373673,18.0,3.0,13.0,MTE,22
1.94,-1.507642,-1.929404,-1.515283,-0.699858,0.08223,-0.709533,-0.475283,0.396606,-0.048249,0.849978,0.108023,-0.365465,0.363735,18.0,3.0,13.0,MTE,22
1.95,-1.276638,-1.835103,-1.727011,-0.71445,0.080603,-0.695029,-0.47984,0.346643,-0.038721,0.850147,0.108455,-0.375131,0.353221,18.0,3.0,13.0,MTE,22
1.96,-0.964334,-1.718676,-1.936781,-0.72813,0.075101,-0.681313,-0.465199,0.285876,-0.077064,0.850582,0.110245,-0.383653,0.342296,18.0,3.0,13.0,MTE,22
1.97,-0.669467,-1.64023,-2.088285,-0.740896,0.065752,-0.668393,-0.410486,0.209212,-0.099383,0.851179,0.113531,-0.391042,0.331195,18.0,3.0,13.0,MTE,22
1.98,-0.467999,-1.497606,-2.132933,-0.752449,0.053805,-0.65645,-0.344018,0.127118,-0.096968,0.851893,0.117763,-0.397375,0.320162,18.0,3.0,13.0,MTE,22
1.99,-0.224311,-1.388401,-2.148853,-0.762892,0.039779,-0.645301,-0.281053,0.044465,-0.065698,0.852581,0.12287,-0.402806,0.309444,18.0,3.0,13.0,MTE,22
2.0,-0.064066,-1.256889,-2.151146,-0.772092,0.024127,-0.635052,-0.229433,-0.021228,-0.011463,0.853257,0.128662,-0.407333,0.29913,18.0,3.0,13.0,MTE,22
2.01,0.03574,-1.106189,-2.106074,-0.779887,0.007627,-0.625874,-0.211645,-0.088026,0.07346,0.853984,0.134725,-0.410989,0.28922,18.0,3.0,13.0,MTE,22
2.02,0.022732,-0.958188,-2.045253,-0.786306,-0.00886,-0.617774,-0.205409,-0.155798,0.167991,0.85478,0.140632,-0.413927,0.27971,18.0,3.0,13.0,MTE,22
2.03,-0.067911,-0.80671,-2.035043,-0.791404,-0.024824,-0.610789,-0.211587,-0.211947,0.253566,0.855762,0.145995,-0.416282,0.270309,18.0,3.0,13.0,MTE,22
2.04,-0.212586,-0.668303,-2.063615,-0.795221,-0.040288,-0.60498,-0.223059,-0.264582,0.307479,0.857045,0.150681,-0.418097,0.260697,18.0,3.0,13.0,MTE,22
2.05,-0.443064,-0.519618,-2.058197,-0.797823,-0.054763,-0.6004,-0.20944,-0.294725,0.363141,0.858691,0.154359,-0.419492,0.250698,18.0,3.0,13.0,MTE,22
2.06,-0.661409,-0.3691,-2.03416,-0.799232,-0.067802,-0.597186,-0.184792,-0.297936,0.374972,0.860705,0.156821,-0.420493,0.240374,18.0,3.0,13.0,MTE,22
2.07,-0.8667,-0.275812,-1.992837,-0.799672,-0.079369,-0.595168,-0.164241,-0.277351,0.350859,0.862998,0.158151,-0.421194,0.229821,18.0,3.0,13.0,MTE,22
2.08,-1.030492,-0.174665,-1.931536,-0.79935,-0.089432,-0.594173,-0.136457,-0.236953,0.334011,0.865489,0.158426,-0.421681,0.219123,18.0,3.0,13.0,MTE,22
2.09,-1.121877,-0.068239,-1.84294,-0.798305,-0.098137,-0.594204,-0.100713,-0.208381,0.290447,0.868111,0.157862,-0.421874,0.20853,18.0,3.0,13.0,MTE,22
2.1,-1.198446,0.009695,-1.761426,-0.796635,-0.105602,-0.595164,-0.06129,-0.194019,0.238581,0.870799,0.156641,-0.42176,0.198222,18.0,3.0,13.0,MTE,22
2.11,-1.294368,0.068004,-1.714617,-0.794519,-0.112013,-0.596819,-0.015677,-0.164751,0.210054,0.873525,0.154842,-0.421443,0.18805,18.0,3.0,13.0,MTE,22
2.12,-1.425311,0.113273,-1.685861,-0.792005,-0.11739,-0.599123,0.021375,-0.136593,0.181612,0.876325,0.152394,-0.420969,0.177808,18.0,3.0,13.0,MTE,22
2.13,-1.495184,0.114047,-1.627491,-0.789325,-0.121701,-0.601793,0.041675,-0.136478,0.151613,0.879109,0.149344,-0.420476,0.167522,18.0,3.0,13.0,MTE,22
2.14,-1.508662,0.12435,-1.537978,-0.786641,-0.125136,-0.604596,0.059209,-0.150499,0.121319,0.881762,0.145958,-0.419998,0.157459,18.0,3.0,13.0,MTE,22
2.15,-1.525634,0.119647,-1.43374,-0.784011,-0.127619,-0.607486,0.072509,-0.125143,0.099521,0.884252,0.14228,-0.419539,0.147786,18.0,3.0,13.0,MTE,22
2.16,-1.511943,0.099386,-1.370733,-0.781534,-0.129304,-0.610315,0.088694,-0.061385,0.098627,0.88656,0.138383,-0.419157,0.138451,18.0,3.0,13.0,MTE,22
2.17,-1.425005,0.08217,-1.325398,-0.779234,-0.130856,-0.612921,0.104872,0.009015,0.09252,0.888655,0.134626,-0.418826,0.129429,18.0,3.0,13.0,MTE,22
2.18,-1.366315,0.073185,-1.272139,-0.777036,-0.132418,-0.615371,0.113583,0.068454,0.098494,0.89056,0.131102,-0.418482,0.120781,18.0,3.0,13.0,MTE,22
2.19,-1.326054,0.062466,-1.229192,-0.774961,-0.133823,-0.617679,0.116407,0.107074,0.073611,0.892303,0.127665,-0.418165,0.112406,18.0,3.0,13.0,MTE,22
2.2,-1.280046,0.003694,-1.169088,-0.773104,-0.135124,-0.61972,0.129152,0.091285,0.019774,0.893855,0.124362,-0.41794,0.104321,18.0,3.0,13.0,MTE,22
2.21,-1.355523,-0.12935,-1.084219,-0.771945,-0.135746,-0.621027,0.146762,0.061588,-0.026464,0.895099,0.12091,-0.418171,0.096499,18.0,3.0,13.0,MTE,22
2.22,-1.510956,-0.233156,-1.023729,-0.771666,-0.134917,-0.621553,0.161696,0.045058,-0.013792,0.896056,0.116747,-0.419039,0.088662,18.0,3.0,13.0,MTE,22
2.23,-1.535812,-0.387973,-0.971952,-0.772248,-0.133042,-0.621235,0.158189,0.021378,-0.108715,0.896712,0.112063,-0.420505,0.080777,18.0,3.0,13.0,MTE,22
2.24,-1.295972,-0.701181,-1.013147,-0.774388,-0.132063,-0.618775,0.182805,0.082197,0.06102,0.896685,0.108123,-0.422992,0.0731,18.0,3.0,13.0,MTE,22
2.25,-1.397871,-0.485409,-0.926101,-0.776955,-0.131219,-0.615729,0.242287,0.222314,0.25257,0.896423,0.104301,-0.425743,0.065505,18.0,3.0,13.0,MTE,22
2.26,-0.795479,-0.424278,-1.160902,-0.778155,-0.132134,-0.614016,0.27286,0.333016,-0.02075,0.896448,0.101458,-0.427432,0.058219,18.0,3.0,13.0,MTE,22
2.27,0.283799,-0.65754,-1.181199,-0.779978,-0.139978,-0.609951,0.390055,0.117303,0.22723,0.895698,0.103057,-0.429422,0.051974,18.0,3.0,13.0,MTE,22
2.28,0.65471,0.091887,-0.809033,-0.780637,-0.151287,-0.606398,0.452191,-0.094273,0.513793,0.8949,0.107855,-0.430312,0.048514,18.0,3.0,13.0,MTE,22
2.29,0.047828,0.257551,-0.742528,-0.777915,-0.159365,-0.607824,0.463737,0.1579,0.159353,0.895427,0.111041,-0.42867,0.046064,18.0,3.0,13.0,MTE,22
2.3,-0.344915,-0.215243,-0.814198,-0.776493,-0.164365,-0.608312,0.606479,0.279614,-0.203501,0.895752,0.111938,-0.428152,0.042243,18.0,3.0,13.0,MTE,22
2.31,-0.562573,-0.706801,-0.953019,-0.777863,-0.168451,-0.605437,0.538193,0.218607,-0.559099,0.89518,0.111863,-0.429847,0.037018,18.0,3.0,13.0,MTE,22
2.32,-0.642881,-0.96274,-0.86716,-0.781443,-0.17207,-0.599783,0.409235,0.05682,-0.566935,0.893827,0.111313,-0.433264,0.031065,18.0,3.0,13.0,MTE,22
2.33,-0.862839,-1.01573,-0.75869,-0.785964,-0.17394,-0.5933,0.34642,-0.086513,-0.499275,0.892193,0.1099,-0.437346,0.025339,18.0,3.0,13.0,MTE,22
2.34,-1.332263,-1.118323,-0.808471,-0.790887,-0.173786,-0.586767,0.268976,-0.153118,-0.276499,0.89052,0.106956,-0.441789,0.018907,18.0,3.0,13.0,MTE,22
2.35,-1.956138,-1.187994,-0.815079,-0.796203,-0.170451,-0.580523,0.155579,-0.186864,-0.03137,0.888899,0.101386,-0.446609,0.010963,18.0,3.0,13.0,MTE,22
2.36,-2.145829,-1.117251,-0.836251,-0.801599,-0.165149,-0.574599,0.026743,-0.166989,0.106216,0.887297,0.094107,-0.451491,0.002053,18.0,3.0,13.0,MTE,22
2.37,-2.134627,-0.907945,-0.810832,-0.806073,-0.159453,-0.56993,-0.096133,-0.090913,0.193496,0.885955,0.086409,-0.455597,-0.006963,18.0,3.0,13.0,MTE,22
2.38,-1.910701,-0.703559,-0.801606,-0.809375,-0.154398,-0.566633,-0.148282,0.002542,0.185163,0.884915,0.079187,-0.458708,-0.015532,18.0,3.0,13.0,MTE,22
2.39,-1.396543,-0.596675,-0.801116,-0.8118,-0.151446,-0.563955,-0.125181,0.083484,0.069753,0.883991,0.073567,-0.461097,-0.023185,18.0,3.0,13.0,MTE,22
2.4,-0.847882,-0.490046,-0.770023,-0.813646,-0.151573,-0.561254,-0.054335,0.136467,-0.032756,0.88304,0.070377,-0.463055,-0.029458,18.0,3.0,13.0,MTE,22
2.41,-0.521488,-0.432213,-0.810503,-0.815065,-0.154284,-0.558449,-0.005217,0.132663,-0.058845,0.882059,0.069226,-0.46474,-0.034602,18.0,3.0,13.0,MTE,22
2.42,-0.736363,-0.313794,-0.942232,-0.815804,-0.158152,-0.556284,-0.01905,0.045435,0.089945,0.881217,0.068597,-0.465996,-0.039974,18.0,3.0,13.0,MTE,22
2.43,-0.961173,-0.249603,-0.910292,-0.815784,-0.160937,-0.555514,-0.054928,-0.063657,0.109072,0.880691,0.06685,-0.466663,-0.046273,18.0,3.0,13.0,MTE,22
2.44,-1.035362,-0.317527,-0.797205,-0.815957,-0.16246,-0.554816,-0.024299,-0.163514,-0.020043,0.880148,0.064453,-0.467373,-0.052425,18.0,3.0,13.0,MTE,22
2.45,-1.261126,-0.345308,-0.797744,-0.816547,-0.162506,-0.553934,-0.024136,-0.080322,0.040109,0.879499,0.061115,-0.468293,-0.05873,18.0,3.0,13.0,MTE,22
2.46,-1.064225,-0.328866,-0.796292,-0.817075,-0.16245,-0.553171,-0.028551,0.003728,0.017618,0.878827,0.057626,-0.469142,-0.065186,18.0,3.0,13.0,MTE,22
2.47,-0.550529,-0.296027,-0.565393,-0.817665,-0.16353,-0.551981,0.038551,0.017045,-0.015143,0.878098,0.055516,-0.470029,-0.070243,18.0,3.0,13.0,MTE,22
2.48,-0.087951,-0.3478,-0.533983,-0.818567,-0.166248,-0.549827,0.151178,0.116321,-0.086816,0.877233,0.055371,-0.471191,-0.073325,18.0,3.0,13.0,MTE,22
2.49,0.027124,-0.404504,-0.699086,-0.81958,-0.171143,-0.546808,0.188019,0.231553,-0.060706,0.876124,0.056549,-0.47265,-0.076224,18.0,3.0,13.0,MTE,22
2.5,0.250964,-0.425682,-0.689697,-0.820617,-0.177733,-0.543137,0.14917,0.145934,-0.060348,0.874819,0.058685,-0.474329,-0.079119,18.0,3.0,13.0,MTE,22
2.51,0.26568,-0.455376,-0.625875,-0.821806,-0.184677,-0.539008,0.089705,0.011581,-0.039743,0.873425,0.061317,-0.476168,-0.081446,18.0,3.0,13.0,MTE,22
2.52,0.194865,-0.616409,-0.599654,-0.823469,-0.190774,-0.534327,0.082899,-0.032264,-0.111151,0.871866,0.063462,-0.47834,-0.083741,18.0,3.0,13.0,MTE,22
2.53,0.042388,-0.734942,-0.658858,-0.825891,-0.19671,-0.528403,0.112985,-0.008383,-0.130365,0.869908,0.065282,-0.481183,-0.086382,18.0,3.0,13.0,MTE,22
2.54,-0.023234,-0.665287,-0.660036,-0.828318,-0.202265,-0.522473,0.045039,0.007258,-0.002811,0.867881,0.066579,-0.484077,-0.089552,18.0,3.0,13.0,MTE,22
2.55,0.006752,-0.484966,-0.54007,-0.830085,-0.207218,-0.517706,-0.069893,-0.091244,0.113653,0.866209,0.06774,-0.486373,-0.092381,18.0,3.0,13.0,MTE,22
2.56,0.069467,-0.29083,-0.546193,-0.831006,-0.21178,-0.514371,-0.149142,-0.093106,0.108274,0.864994,0.068994,-0.487908,-0.094711,18.0,3.0,13.0,MTE,22
2.57,0.06815,-0.08933,-0.503265,-0.830798,-0.216993,-0.512532,-0.190321,-0.068041,0.121755,0.864214,0.07073,-0.488601,-0.096953,18.0,3.0,13.0,MTE,22
2.58,0.486695,-0.205345,-0.360878,-0.830572,-0.221621,-0.510916,-0.089289,0.097322,-0.193018,0.863596,0.072643,-0.489147,-0.098285,18.0,3.0,13.0,MTE,22
2.59,0.783228,-0.11587,-0.238346,-0.83077,-0.227439,-0.508029,0.105657,0.2508,-0.235791,0.862793,0.076143,-0.49009,-0.09799,18.0,3.0,13.0,MTE,22
2.6,1.036518,-0.043627,-0.205728,-0.830646,-0.233967,-0.505259,0.130985,0.208577,-0.197408,0.862137,0.080648,-0.490781,-0.096691,18.0,3.0,13.0,MTE,22
2.61,0.766036,-0.067037,-0.213239,-0.830393,-0.240451,-0.502624,0.088038,0.041797,-0.134904,0.861521,0.085162,-0.491361,-0.095362,18.0,3.0,13.0,MTE,22
2.62,0.331392,-0.085407,-0.190052,-0.830293,-0.244834,-0.500669,0.013383,-0.074776,-0.064745,0.861004,0.087967,-0.491861,-0.0949,18.0,3.0,13.0,MTE,22
2.63,-0.082203,-0.10139,-0.240908,-0.830248,-0.247219,-0.499571,-0.024031,-0.107044,-0.020434,0.860611,0.088964,-0.49224,-0.095575,18.0,3.0,13.0,MTE,22
2.64,-0.252677,-0.132466,-0.254158,-0.830187,-0.24844,-0.499067,6.3e-05,-0.0779,-0.038607,0.860285,0.088761,-0.492532,-0.097171,18.0,3.0,13.0,MTE,22
2.65,-0.342513,-0.203717,-0.205119,-0.830429,-0.248872,-0.498447,0.059952,-0.042601,-0.063046,0.8599,0.087969,-0.492989,-0.09897,18.0,3.0,13.0,MTE,22
2.66,-0.464735,-0.246092,-0.198068,-0.831062,-0.248534,-0.49756,0.068718,0.008162,-0.071913,0.859416,0.086625,-0.493676,-0.100916,18.0,3.0,13.0,MTE,22
2.67,-0.489216,-0.327751,-0.134495,-0.832023,-0.247661,-0.496389,0.024833,-0.055515,-0.062647,0.858831,0.084885,-0.494571,-0.102975,18.0,3.0,13.0,MTE,22
2.68,-0.619975,-0.407259,-0.145894,-0.833575,-0.246057,-0.494579,0.020328,-0.069128,-0.053243,0.858051,0.082667,-0.49586,-0.105063,18.0,3.0,13.0,MTE,22
2.69,-0.731647,-0.390509,-0.168128,-0.835163,-0.243996,-0.492918,0.033909,0.01516,-0.00638,0.857248,0.079894,-0.49715,-0.107633,18.0,3.0,13.0,MTE,22
2.7,-0.584803,-0.408444,-0.070908,-0.836741,-0.242044,-0.491202,0.026316,-0.098151,-0.017495,0.856445,0.077282,-0.498424,-0.110015,18.0,3.0,13.0,MTE,22
2.71,-0.850589,-0.464563,-0.115262,-0.838788,-0.238963,-0.489215,0.00781,-0.063481,0.052386,0.855565,0.074021,-0.499913,-0.112324,18.0,3.0,13.0,MTE,22
2.72,-0.590312,-0.25926,-0.165478,-0.840233,-0.236514,-0.487924,-0.029213,0.103015,0.117394,0.854834,0.070953,-0.501003,-0.114977,18.0,3.0,13.0,MTE,22
2.73,-0.236395,-0.251624,0.065323,-0.841269,-0.235224,-0.48676,-0.047677,-0.052343,0.036244,0.854345,0.069484,-0.501789,-0.116083,18.0,3.0,13.0,MTE,22
2.74,-0.223511,-0.222091,-0.050016,-0.842491,-0.23404,-0.485215,-0.05027,0.179047,0.050477,0.853788,0.068256,-0.502726,-0.116851,18.0,3.0,13.0,MTE,22
2.75,0.153327,-0.13107,-0.006864,-0.843214,-0.234117,-0.483922,-0.020571,0.131089,0.00948,0.853364,0.068049,-0.503397,-0.11718,18.0,3.0,13.0,MTE,22
2.76,0.210927,-0.194328,-0.011951,-0.844012,-0.235126,-0.482037,-0.000531,0.022098,-0.024967,0.852882,0.068872,-0.50422,-0.116662,18.0,3.0,13.0,MTE,22
2.77,0.045757,-0.168328,-0.059257,-0.844803,-0.236088,-0.480178,-0.031997,0.006214,0.108168,0.852347,0.069404,-0.505069,-0.116594,18.0,3.0,13.0,MTE,22
2.78,-0.095727,-0.123543,-0.065153,-0.845335,-0.236476,-0.479049,-0.055163,-0.099248,0.149383,0.851966,0.06937,-0.505631,-0.116956,18.0,3.0,13.0,MTE,22
2.79,0.040415,-0.141311,0.005476,-0.845787,-0.236745,-0.478118,-0.021751,-0.103343,0.081893,0.851632,0.069228,-0.506111,-0.117396,18.0,3.0,13.0,MTE,22
2.8,-0.041941,-0.219671,-0.026465,-0.846775,-0.236507,-0.476483,0.034046,-0.047184,0.06683,0.851153,0.069016,-0.506947,-0.117389,18.0,3.0,13.0,MTE,22
2.81,0.192224,-0.180363,-0.071945,-0.847576,-0.237249,-0.474686,0.023968,0.132559,0.078003,0.850603,0.069284,-0.507796,-0.11755,18.0,3.0,13.0,MTE,22
2.82,0.524307,-0.210851,-0.017743,-0.848335,-0.23947,-0.47221,0.018882,0.082747,-0.0181,0.849967,0.070906,-0.50879,-0.116879,18.0,3.0,13.0,MTE,22
2.83,0.51638,-0.235391,-0.025662,-0.849361,-0.242138,-0.468994,0.017726,0.060833,0.011291,0.849183,0.073079,-0.510061,-0.115695,18.0,3.0,13.0,MTE,22
2.84,0.46468,-0.252953,-0.024644,-0.850422,-0.244677,-0.465741,0.001972,0.003299,0.041745,0.848373,0.075126,-0.511356,-0.114605,18.0,3.0,13.0,MTE,22
2.85,0.343847,-0.268079,-0.099707,-0.851521,-0.247021,-0.462484,-0.032588,-0.003208,0.065527,0.847503,0.076813,-0.512696,-0.11393,18.0,3.0,13.0,MTE,22
2.86,0.398682,-0.159253,-0.096652,-0.852272,-0.249565,-0.459727,-0.111381,0.029777,0.127772,0.846744,0.078482,-0.513787,-0.113527,18.0,3.0,13.0,MTE,22
2.87,0.575662,-0.079364,-0.077137,-0.852577,-0.25254,-0.457533,-0.177224,0.045493,0.142851,0.846208,0.080704,-0.51451,-0.112685,18.0,3.0,13.0,MTE,22
2.88,0.780048,-0.070014,-0.058742,-0.852731,-0.256218,-0.455195,-0.146277,0.059837,0.108988,0.845707,0.083713,-0.515165,-0.11125,18.0,3.0,13.0,MTE,22
2.89,0.937997,-0.08787,-0.077176,-0.852899,-0.260717,-0.452316,-0.07923,0.042654,0.053619,0.845107,0.087508,-0.515931,-0.109328,18.0,3.0,13.0,MTE,22
2.9,0.972783,-0.154196,-0.044785,-0.853253,-0.265659,-0.448758,-0.014941,-0.019467,-0.009646,0.844332,0.091712,-0.516923,-0.10716,18.0,3.0,13.0,MTE,22
2.91,0.666294,-0.258367,-0.007,-0.854103,-0.269626,-0.444758,0.078316,-0.090237,-0.064489,0.843398,0.095231,-0.51822,-0.105159,18.0,3.0,13.0,MTE,22
2.92,0.111742,-0.402774,-0.088243,-0.855449,-0.271744,-0.440865,0.15382,-0.112793,-0.112343,0.842327,0.096827,-0.5198,-0.104486,18.0,3.0,13.0,MTE,22
2.93,-0.438411,-0.548504,-0.175341,-0.857169,-0.272192,-0.437233,0.199882,-0.152506,-0.147698,0.841093,0.096236,-0.521653,-0.105726,18.0,3.0,13.0,MTE,22
2.94,-0.933364,-0.678932,-0.244469,-0.859277,-0.270971,-0.433841,0.217034,-0.158579,-0.115887,0.839702,0.093532,-0.523766,-0.108726,18.0,3.0,13.0,MTE,22
2.95,-1.171819,-0.727966,-0.327196,-0.86157,-0.268791,-0.430637,0.161924,-0.106285,-0.060086,0.83817,0.089372,-0.526017,-0.11309,18.0,3.0,13.0,MTE,22
2.96,-1.018384,-0.729514,-0.343667,-0.863795,-0.266928,-0.427327,0.071116,-0.07197,0.029301,0.836536,0.085166,-0.528283,-0.117777,18.0,3.0,13.0,MTE,22
2.97,-0.616783,-0.67404,-0.338784,-0.865904,-0.266304,-0.42343,-0.002626,-0.016456,0.14012,0.834809,0.082154,-0.5306,-0.121691,18.0,3.0,13.0,MTE,22
2.98,-0.008219,-0.538474,-0.314393,-0.867602,-0.267755,-0.419016,-0.0688,0.092752,0.214869,0.833117,0.081267,-0.532811,-0.124195,18.0,3.0,13.0,MTE,22
2.99,0.756707,-0.355273,-0.198238,-0.868772,-0.271589,-0.414095,-0.123354,0.165022,0.212023,0.831598,0.083248,-0.534811,-0.124466,18.0,3.0,13.0,MTE,22
3.0,1.333985,-0.194479,-0.083496,-0.869531,-0.277162,-0.408776,-0.135398,0.19156,0.165932,0.830319,0.087868,-0.536555,-0.122303,18.0,3.0,13.0,MTE,22
3.01,1.565758,-0.05548,-0.02215,-0.869879,-0.283587,-0.403594,-0.103769,0.171434,0.06726,0.829296,0.094053,-0.537919,-0.118597,18.0,3.0,13.0,MTE,22
3.02,1.510651,-0.095869,0.047687,-0.870205,-0.289689,-0.398527,-0.032002,0.066133,-0.087175,0.828355,0.100391,-0.539127,-0.114417,18.0,3.0,13.0,MTE,22
3.03,1.488942,-0.119947,0.073511,-0.870849,-0.295028,-0.393168,0.089568,-0.108735,-0.100103,0.827318,0.106359,-0.540466,-0.110129,18.0,3.0,13.0,MTE,22
3.04,1.016737,-0.129048,-0.063874,-0.871359,-0.299957,-0.388276,0.222281,-0.19426,0.014955,0.826299,0.111612,-0.541668,-0.106622,18.0,3.0,13.0,MTE,22
3.05,0.260974,-0.328394,-0.364788,-0.871557,-0.304227,-0.384493,0.235616,-0.088428,-0.130049,0.825245,0.114665,-0.542776,-0.105912,18.0,3.0,13.0,MTE,22
3.06,0.120585,-0.513068,-0.363694,-0.871986,-0.308267,-0.380279,0.166404,-0.080558,-0.240098,0.823773,0.116121,-0.544405,-0.107412,18.0,3.0,13.0,MTE,22
3.07,0.17229,-0.462255,-0.112854,-0.87319,-0.310858,-0.375377,0.102346,-0.155878,-0.060231,0.822177,0.117112,-0.54644,-0.108231,18.0,3.0,13.0,MTE,22
3.08,0.228422,-0.218934,-0.214217,-0.874024,-0.312849,-0.371762,0.031327,-0.023424,0.104581,0.821041,0.118114,-0.547876,-0.108506,18.0,3.0,13.0,MTE,22
3.09,0.228422,-0.218934,-0.214217,-0.874024,-0.312849,-0.371762,0.031327,-0.023424,0.104581,0.821041,0.118114,-0.547876,-0.108506,18.0,3.0,13.0,MTE,22
3.1,0.336757,-0.00725,-0.323024,-0.87352,-0.316361,-0.369972,-0.008209,0.134064,0.115531,0.820435,0.119986,-0.548286,-0.108957,18.0,3.0,13.0,MTE,22
3.11,0.548104,0.096284,-0.278606,-0.872372,-0.320664,-0.368974,0.00137,0.180985,0.086594,0.820125,0.122642,-0.548153,-0.109003,18.0,3.0,13.0,MTE,22
3.12,0.70021,0.223441,-0.242734,-0.870959,-0.325256,-0.368293,-0.001417,0.123397,0.074211,0.820022,0.126045,-0.547692,-0.108215,18.0,3.0,13.0,MTE,22
3.13,0.698092,0.323428,-0.268236,-0.869121,-0.330026,-0.368391,-0.012395,0.059198,0.057982,0.820194,0.129771,-0.546776,-0.107129,18.0,3.0,13.0,MTE,22
3.14,0.757674,0.444903,-0.258527,-0.866791,-0.335084,-0.369313,0.006531,-0.043288,0.048528,0.820629,0.133751,-0.545393,-0.105945,18.0,3.0,13.0,MTE,22
3.15,0.510476,0.446907,-0.297903,-0.864179,-0.339855,-0.371071,0.061353,-0.066029,0.00367,0.821283,0.137381,-0.543683,-0.105023,18.0,3.0,13.0,MTE,22
3.16,0.333036,0.421337,-0.3412,-0.861461,-0.344161,-0.373415,0.110622,-0.059297,-0.035475,0.82201,0.140177,-0.541888,-0.104917,18.0,3.0,13.0,MTE,22
3.17,0.362005,0.374397,-0.389299,-0.858695,-0.348642,-0.375623,0.105307,-0.071143,-0.095721,0.822643,0.142815,-0.540178,-0.105215,18.0,3.0,13.0,MTE,22
3.18,0.25306,0.322998,-0.459512,-0.855854,-0.353516,-0.377545,0.055576,-0.013427,-0.102374,0.823141,0.145455,-0.538582,-0.105885,18.0,3.0,13.0,MTE,22
3.19,0.177267,0.308089,-0.415145,-0.853095,-0.358112,-0.379452,0.008323,0.032535,-0.01305,0.823583,0.147668,-0.537092,-0.106944,18.0,3.0,13.0,MTE,22
3.2,0.236496,0.34437,-0.353677,-0.850489,-0.362139,-0.381476,-0.031881,0.007738,0.029394,0.824095,0.149705,-0.535584,-0.10773,18.0,3.0,13.0,MTE,22
3.21,0.374498,0.416154,-0.366985,-0.847725,-0.366281,-0.383666,-0.049339,-0.021277,0.01924,0.824705,0.152057,-0.533897,-0.108146,18.0,3.0,13.0,MTE,22
3.22,0.402745,0.407737,-0.39083,-0.844743,-0.371117,-0.385592,-0.029494,-0.07328,-0.029416,0.825288,0.155113,-0.532113,-0.108146,18.0,3.0,13.0,MTE,22
3.23,-0.000912,0.261681,-0.480919,-0.841815,-0.375573,-0.387677,0.011798,0.00483,0.00816,0.82578,0.157247,-0.530504,-0.109207,18.0,3.0,13.0,MTE,22
3.24,-0.049036,0.245187,-0.490256,-0.838973,-0.379481,-0.390023,0.039581,-0.043828,0.06115,0.826225,0.158449,-0.529039,-0.111195,18.0,3.0,13.0,MTE,22
3.25,-0.013695,0.227765,-0.483398,-0.836239,-0.38357,-0.39189,0.022793,-0.135366,0.043486,0.826556,0.159938,-0.527707,-0.112917,18.0,3.0,13.0,MTE,22
3.26,-0.257079,0.195391,-0.53823,-0.833438,-0.387237,-0.394244,0.006213,-0.023438,0.066927,0.82694,0.160756,-0.526342,-0.115293,18.0,3.0,13.0,MTE,22
3.27,-0.120978,0.242267,-0.568028,-0.830371,-0.391079,-0.396914,-0.000439,0.018047,0.004825,0.827369,0.161503,-0.524843,-0.117973,18.0,3.0,13.0,MTE,22
3.28,0.043204,0.269804,-0.511714,-0.827213,-0.395494,-0.399129,0.006702,0.018754,-0.034801,0.827732,0.16297,-0.523332,-0.120098,18.0,3.0,13.0,MTE,22
3.29,0.072803,0.271128,-0.49023,-0.824133,-0.399784,-0.40122,0.044058,0.03278,0.001531,0.82812,0.164652,-0.521804,-0.12177,18.0,3.0,13.0,MTE,22
3.3,0.087961,0.255927,-0.554707,-0.820969,-0.404487,-0.402989,0.064301,0.019324,-0.023158,0.828401,0.166579,-0.520343,-0.123475,18.0,3.0,13.0,MTE,22
3.31,0.332974,0.24478,-0.539035,-0.81771,-0.40977,-0.404276,0.078162,-0.06255,-0.002157,0.828547,0.168932,-0.518964,-0.125089,18.0,3.0,13.0,MTE,22
3.32,-0.01642,0.182997,-0.607163,-0.814417,-0.415195,-0.405387,0.064158,-0.050168,0.011145,0.828618,0.171302,-0.517651,-0.126829,18.0,3.0,13.0,MTE,22
3.33,-0.13755,0.1974,-0.638139,-0.811069,-0.419876,-0.407272,0.047138,0.019104,0.068878,0.828768,0.172616,-0.516302,-0.129534,18.0,3.0,13.0,MTE,22
3.34,-0.065177,0.19234,-0.615814,-0.807602,-0.424573,-0.409287,0.017304,-0.019549,0.024919,0.828948,0.173952,-0.514876,-0.132245,18.0,3.0,13.0,MTE,22
3.35,-0.052286,0.231794,-0.592651,-0.804132,-0.429218,-0.41127,0.015024,-0.025402,0.043991,0.829149,0.175416,-0.513414,-0.134712,18.0,3.0,13.0,MTE,22
3.36,-0.030015,0.220558,-0.590968,-0.800639,-0.433809,-0.413263,0.033412,-0.012084,0.052988,0.829364,0.176929,-0.511922,-0.137064,18.0,3.0,13.0,MTE,22
3.37,0.035287,0.186334,-0.582049,-0.797228,-0.438485,-0.41492,0.057955,0.013452,0.056461,0.829484,0.178548,-0.510549,-0.13934,18.0,3.0,13.0,MTE,22
3.38,0.191911,0.146181,-0.547975,-0.794038,-0.443485,-0.415722,0.062394,0.031742,0.026379,0.829401,0.180586,-0.509438,-0.141262,18.0,3.0,13.0,MTE,22
3.39,0.295395,0.143558,-0.514348,-0.791084,-0.448722,-0.415735,0.051826,0.026786,0.040689,0.82916,0.183073,-0.508544,-0.14269,18.0,3.0,13.0,MTE,22
3.4,0.333275,0.136365,-0.517447,-0.788183,-0.454115,-0.415388,0.04215,0.017989,0.049818,0.828847,0.185799,-0.507725,-0.143895,18.0,3.0,13.0,MTE,22
3.41,0.350532,0.129177,-0.522081,-0.785242,-0.459654,-0.414866,0.037363,-0.005892,0.029994,0.828487,0.188645,-0.506932,-0.145062,18.0,3.0,13.0,MTE,22
3.42,0.303465,0.113443,-0.501204,-0.78235,-0.465061,-0.414303,0.035417,-0.033947,0.003368,0.828113,0.191422,-0.506168,-0.146219,18.0,3.0,13.0,MTE,22
3.43,0.164782,0.082219,-0.515356,-0.779561,-0.470002,-0.413983,0.030859,-0.033645,0.003201,0.82776,0.193734,-0.505446,-0.147663,18.0,3.0,13.0,MTE,22
3.44,0.142581,0.061043,-0.498128,-0.776878,-0.474582,-0.413802,0.025184,-0.041409,0.01274,0.82741,0.195698,-0.504778,-0.149309,18.0,3.0,13.0,MTE,22
3.45,0.199686,0.042462,-0.4737,-0.7743,-0.479056,-0.413479,0.023781,-0.036004,0.010311,0.827031,0.197655,-0.504175,-0.150862,18.0,3.0,13.0,MTE,22
3.46,0.217206,0.031221,-0.468889,-0.771872,-0.483602,-0.412726,0.018881,0.002203,0.004645,0.826554,0.199777,-0.503712,-0.15222,18.0,3.0,13.0,MTE,22
3.47,0.242447,0.012728,-0.485944,-0.769461,-0.488219,-0.41179,-0.005532,0.047073,-0.00096,0.826011,0.201919,-0.503323,-0.153624,18.0,3.0,13.0,MTE,22
3.48,0.322017,0.020708,-0.480243,-0.766997,-0.493143,-0.410519,-0.039247,0.018137,-0.016193,0.825389,0.204345,-0.502975,-0.154894,18.0,3.0,13.0,MTE,22
3.49,0.254889,0.02528,-0.480474,-0.764518,-0.498049,-0.409217,-0.060708,-0.009977,-0.013192,0.824769,0.206811,-0.502614,-0.15609,18.0,3.0,13.0,MTE,22
3.5,0.147118,0.018318,-0.484199,-0.76201,-0.502545,-0.408398,-0.068388,-0.011279,0.000546,0.824239,0.208852,-0.502177,-0.157571,18.0,3.0,13.0,MTE,22
3.51,0.101738,0.042837,-0.472728,-0.759471,-0.506694,-0.408001,-0.066869,-0.044987,-0.011326,0.823805,0.210586,-0.50165,-0.159205,18.0,3.0,13.0,MTE,22
3.52,0.008806,0.040923,-0.469582,-0.756889,-0.510529,-0.408019,-0.055107,-0.049469,-0.050629,0.823473,0.212065,-0.501018,-0.160941,18.0,3.0,13.0,MTE,22
3.53,-0.110192,0.018937,-0.480985,-0.754328,-0.513888,-0.408543,-0.032048,-0.023846,-0.056759,0.823224,0.213042,-0.500341,-0.163014,18.0,3.0,13.0,MTE,22
3.54,-0.142101,0.007699,-0.482513,-0.751784,-0.517008,-0.409296,-0.01619,-0.008673,-0.027869,0.822991,0.213726,-0.499673,-0.165326,18.0,3.0,13.0,MTE,22
3.55,-0.097178,0.00868,-0.483498,-0.749259,-0.520123,-0.40998,-0.023843,0.016201,-0.009927,0.822736,0.214424,-0.499031,-0.167618,18.0,3.0,13.0,MTE,22
3.56,-0.036524,0.016786,-0.484096,-0.74667,-0.523492,-0.410415,-0.04636,0.04754,-0.030335,0.822426,0.215375,-0.498404,-0.169775,18.0,3.0,13.0,MTE,22
3.57,0.016247,0.050078,-0.452531,-0.744054,-0.526964,-0.410722,-0.052974,0.041002,-0.000624,0.822118,0.216534,-0.497747,-0.171705,18.0,3.0,13.0,MTE,22
3.58,0.064471,0.071814,-0.41282,-0.741502,-0.530355,-0.410972,-0.043364,0.006658,0.020194,0.821858,0.217843,-0.49705,-0.173306,18.0,3.0,13.0,MTE,22
3.59,0.050545,0.063883,-0.398267,-0.739047,-0.533624,-0.411163,-0.02081,-0.007682,0.018478,0.821613,0.219175,-0.496368,-0.17474,18.0,3.0,13.0,MTE,22
3.6,-0.003785,0.062003,-0.398694,-0.736645,-0.536663,-0.411518,0.000653,0.00526,0.012791,0.821397,0.220313,-0.495685,-0.176256,18.0,3.0,13.0,MTE,22
3.61,0.004317,0.055082,-0.386957,-0.734258,-0.539569,-0.411983,0.02297,0.012409,-0.001271,0.821199,0.221336,-0.494994,-0.177828,18.0,3.0,13.0,MTE,22
3.62,-5e-06,0.046432,-0.371203,-0.73198,-0.542384,-0.412341,0.042741,0.012263,-0.002668,0.820986,0.222352,-0.494357,-0.179312,18.0,3.0,13.0,MTE,22
3.63,-0.041317,0.036253,-0.383567,-0.729757,-0.545084,-0.412721,0.044408,0.022791,0.012178,0.82076,0.223252,-0.493759,-0.180869,18.0,3.0,13.0,MTE,22
3.64,-0.018633,0.037591,-0.363145,-0.72757,-0.547684,-0.413141,0.027802,0.01947,0.033151,0.820535,0.224069,-0.493176,-0.182461,18.0,3.0,13.0,MTE,22
3.65,0.052399,0.072554,-0.319735,-0.725483,-0.55024,-0.413413,0.010746,0.001808,0.040855,0.82033,0.225035,-0.492598,-0.183754,18.0,3.0,13.0,MTE,22
3.66,0.075202,0.100643,-0.273358,-0.723475,-0.552676,-0.413681,0.006633,0.015521,0.029709,0.820199,0.226132,-0.491959,-0.1847,18.0,3.0,13.0,MTE,22
3.67,0.079541,0.126166,-0.240479,-0.72159,-0.554839,-0.41408,0.023119,0.026091,0.024508,0.820156,0.227179,-0.491274,-0.185431,18.0,3.0,13.0,MTE,22
3.68,0.070072,0.145392,-0.233834,-0.719724,-0.55684,-0.414641,0.041425,0.01561,0.007811,0.820187,0.228193,-0.490518,-0.186046,18.0,3.0,13.0,MTE,22
3.69,0.036356,0.160811,-0.248513,-0.717743,-0.558806,-0.415428,0.043809,0.002745,-0.013313,0.820274,0.229157,-0.489666,-0.186721,18.0,3.0,13.0,MTE,22
3.7,-0.012651,0.171769,-0.248528,-0.715652,-0.560666,-0.416528,0.03096,-0.014484,-0.037634,0.820429,0.229994,-0.488711,-0.187512,18.0,3.0,13.0,MTE,22
3.71,-0.049467,0.175982,-0.218918,-0.713606,-0.562194,-0.417977,0.013869,-0.040025,-0.031226,0.820679,0.230591,-0.487688,-0.18835,18.0,3.0,13.0,MTE,22
3.72,-0.08473,0.185958,-0.217203,-0.711621,-0.563477,-0.419629,-0.013415,-0.037582,-0.005481,0.820985,0.231021,-0.486636,-0.189205,18.0,3.0,13.0,MTE,22
3.73,-0.097053,0.205996,-0.221377,-0.709548,-0.564658,-0.421548,-0.046494,0.001318,0.016458,0.821357,0.231356,-0.485489,-0.190123,18.0,3.0,13.0,MTE,22
3.74,0.00047,0.246686,-0.213524,-0.707361,-0.565999,-0.42342,-0.08167,0.020879,0.002796,0.821751,0.231898,-0.484266,-0.190881,18.0,3.0,13.0,MTE,22
3.75,0.081086,0.279061,-0.209759,-0.705008,-0.567717,-0.425042,-0.097467,0.016783,-0.026511,0.822135,0.23286,-0.482965,-0.191352,18.0,3.0,13.0,MTE,22
3.76,0.05666,0.284143,-0.2095,-0.702604,-0.569506,-0.426627,-0.080645,0.000521,-0.037973,0.822537,0.233947,-0.481617,-0.191694,18.0,3.0,13.0,MTE,22
3.77,-0.012902,0.255127,-0.244719,-0.700173,-0.571166,-0.428401,-0.052436,-0.031953,-0.054402,0.822948,0.234833,-0.480263,-0.192244,18.0,3.0,13.0,MTE,22
3.78,-0.103525,0.22615,-0.298909,-0.697586,-0.572826,-0.4304,-0.027115,-0.059864,-0.05367,0.82333,0.235492,-0.478898,-0.193206,18.0,3.0,13.0,MTE,22
3.79,-0.212225,0.19214,-0.347535,-0.694824,-0.574386,-0.432781,-0.025879,-0.057709,-0.054646,0.823704,0.235802,-0.477501,-0.194685,18.0,3.0,13.0,MTE,22
3.8,-0.246077,0.159769,-0.361871,-0.692023,-0.575842,-0.435328,-0.034433,-0.050852,-0.069021,0.824047,0.235864,-0.476134,-0.196494,18.0,3.0,13.0,MTE,22
3.81,-0.269846,0.135573,-0.336448,-0.689354,-0.577123,-0.437859,-0.030083,-0.03921,-0.018089,0.824361,0.235766,-0.474852,-0.198387,18.0,3.0,13.0,MTE,22
3.82,-0.223961,0.119419,-0.339866,-0.686839,-0.578347,-0.440189,-0.017415,-0.021491,0.024876,0.824623,0.235658,-0.473678,-0.200231,18.0,3.0,13.0,MTE,22
3.83,-0.139801,0.116809,-0.35553,-0.684288,-0.579962,-0.442034,-0.002479,0.006231,0.036699,0.824761,0.23587,-0.472597,-0.201957,18.0,3.0,13.0,MTE,22
3.84,-0.031837,0.105285,-0.371586,-0.681667,-0.582072,-0.443308,0.009197,0.02769,0.026255,0.824761,0.236494,-0.471611,-0.203526,18.0,3.0,13.0,MTE,22
3.85,0.005423,0.073878,-0.392612,-0.679027,-0.58464,-0.44398,0.013454,0.031005,0.017268,0.824595,0.237454,-0.470771,-0.205019,18.0,3.0,13.0,MTE,22
3.86,-0.00055,0.046046,-0.40507,-0.676401,-0.587403,-0.444342,0.020151,0.016541,0.025305,0.824314,0.238497,-0.470051,-0.206583,18.0,3.0,13.0,MTE,22
3.87,-0.089989,0.029539,-0.406743,-0.67383,-0.589966,-0.444852,0.022737,0.00383,0.037626,0.824032,0.239317,-0.469363,-0.208322,18.0,3.0,13.0,MTE,22
3.88,-0.103302,0.021522,-0.399804,-0.671331,-0.592244,-0.445603,0.037603,-0.010753,0.031357,0.823784,0.239879,-0.468675,-0.210195,18.0,3.0,13.0,MTE,22
3.89,-0.106304,0.009197,-0.393216,-0.668901,-0.594451,-0.446318,0.067644,-0.02144,0.037093,0.823525,0.240406,-0.468023,-0.212051,18.0,3.0,13.0,MTE,22
3.9,-0.08795,-0.028601,-0.390708,-0.666591,-0.596656,-0.446831,0.084942,-0.004907,0.038536,0.823193,0.24091,-0.46749,-0.213935,18.0,3.0,13.0,MTE,22
3.91,-0.025119,-0.030026,-0.359749,-0.664475,-0.598879,-0.447008,0.091676,-0.001218,0.072679,0.822796,0.2415,-0.467091,-0.215664,18.0,3.0,13.0,MTE,22
3.92,0.067901,0.002865,-0.324471,-0.662461,-0.601273,-0.446784,0.072358,0.00969,0.075003,0.822362,0.242381,-0.466754,-0.217056,18.0,3.0,13.0,MTE,22
3.93,0.130979,0.027689,-0.270091,-0.660598,-0.603707,-0.446261,0.048629,0.00541,0.065157,0.821949,0.243522,-0.466441,-0.218015,18.0,3.0,13.0,MTE,22
3.94,0.119589,0.039268,-0.230883,-0.658912,-0.605938,-0.445729,0.031837,8.7e-05,0.063771,0.8216,0.244666,-0.466126,-0.21872,18.0,3.0,13.0,MTE,22
3.95,0.153252,0.018379,-0.182219,-0.657503,-0.607926,-0.445102,0.0347,-0.025146,0.040516,0.821269,0.245739,-0.465898,-0.219244,18.0,3.0,13.0,MTE,22
3.96,0.103714,-0.001251,-0.159409,-0.656417,-0.609639,-0.444362,0.04106,-0.046505,0.029857,0.820944,0.246696,-0.465789,-0.219617,18.0,3.0,13.0,MTE,22
3.97,0.002693,-0.024184,-0.131767,-0.655572,-0.610832,-0.44397,0.044519,-0.042076,0.005127,0.820691,0.247236,-0.465714,-0.220117,18.0,3.0,13.0,MTE,22
3.98,-0.097193,-0.044782,-0.091445,-0.65506,-0.611346,-0.444019,0.050598,-0.064542,-0.015347,0.820546,0.247267,-0.465671,-0.220712,18.0,3.0,13.0,MTE,22
3.99,-0.174626,-0.090993,-0.084702,-0.654812,-0.611314,-0.444428,0.050931,-0.067229,-0.014465,0.820464,0.246835,-0.465681,-0.221478,18.0,3.0,13.0,MTE,22
4.0,-0.17535,-0.141723,-0.062473,-0.654876,-0.611005,-0.444759,0.047668,-0.065036,0.006542,0.820325,0.246131,-0.465876,-0.222367,18.0,3.0,13.0,MTE,22
4.01,-0.087364,-0.166172,-0.020655,-0.655312,-0.610695,-0.444543,0.027153,-0.059456,0.023965,0.82007,0.245503,-0.466323,-0.22306,18.0,3.0,13.0,MTE,22
4.02,0.010952,-0.130579,0.029154,-0.656013,-0.610521,-0.443747,-0.007882,-0.052702,0.045569,0.819762,0.24519,-0.466914,-0.223303,18.0,3.0,13.0,MTE,22
4.03,0.028617,-0.075757,0.0659,-0.656766,-0.610302,-0.442932,-0.045885,-0.056476,0.049912,0.81955,0.24506,-0.467418,-0.223167,18.0,3.0,13.0,MTE,22
4.04,-0.03604,-0.01145,0.120105,-0.656917,-0.610717,-0.442137,-0.063008,-0.078553,0.028151,0.819326,0.245343,-0.467695,-0.223101,18.0,3.0,13.0,MTE,22
4.05,-0.131751,0.035892,0.1725,-0.657225,-0.610045,-0.442605,-0.047731,-0.108583,-0.03176,0.819526,0.245015,-0.467616,-0.222889,18.0,3.0,13.0,MTE,22
4.06,-0.290952,0.033566,0.242201,-0.657597,-0.608596,-0.444046,0.004124,-0.11789,-0.094024,0.820001,0.244151,-0.467298,-0.222757,18.0,3.0,13.0,MTE,22
4.07,-0.449718,-0.015262,0.28822,-0.658668,-0.605776,-0.44631,0.060203,-0.116453,-0.106486,0.820702,0.242318,-0.467041,-0.222715,18.0,3.0,13.0,MTE,22
4.08,-0.581341,-0.052904,0.313635,-0.660191,-0.602121,-0.448997,0.077809,-0.102942,-0.076638,0.821467,0.239792,-0.466906,-0.222913,18.0,3.0,13.0,MTE,22
4.09,-0.648754,-0.045589,0.37215,-0.662083,-0.597743,-0.452051,0.051869,-0.074071,-0.021978,0.822318,0.236739,-0.466829,-0.223201,18.0,3.0,13.0,MTE,22
4.1,-0.610542,-0.022885,0.457913,-0.66472,-0.592106,-0.455585,0.009202,-0.051067,0.008121,0.823443,0.233119,-0.466758,-0.223012,18.0,3.0,13.0,MTE,22
4.11,-0.551514,0.052422,0.536797,-0.667608,-0.586107,-0.459105,-0.027582,-0.029601,0.05197,0.824704,0.229563,-0.466635,-0.222298,18.0,3.0,13.0,MTE,22
4.12,-0.489095,0.177788,0.596108,-0.670425,-0.579901,-0.462866,-0.041306,-0.015192,0.0651,0.826185,0.226217,-0.466254,-0.221024,18.0,3.0,13.0,MTE,22
4.13,-0.393194,0.269048,0.648031,-0.672951,-0.573673,-0.466943,-0.032143,-0.022777,0.027231,0.827895,0.223192,-0.465525,-0.21923,18.0,3.0,13.0,MTE,22
4.14,-0.426348,0.333384,0.711044,-0.675425,-0.567203,-0.471256,0.010859,-0.036694,-0.006192,0.829777,0.220268,-0.464601,-0.21702,18.0,3.0,13.0,MTE,22
4.15,-0.517208,0.362755,0.749176,-0.677898,-0.559957,-0.476342,0.045711,-0.048243,-0.047248,0.831912,0.216951,-0.463423,-0.214695,18.0,3.0,13.0,MTE,22
4.16,-0.54675,0.339487,0.748954,-0.680393,-0.55233,-0.48166,0.065479,-0.07473,-0.116271,0.834094,0.213391,-0.462206,-0.21241,18.0,3.0,13.0,MTE,22
4.17,-0.689436,0.29272,0.751423,-0.682953,-0.544219,-0.487238,0.075271,-0.074937,-0.09963,0.836281,0.209416,-0.461005,-0.210364,18.0,3.0,13.0,MTE,22
4.18,-0.767106,0.237397,0.744878,-0.685714,-0.535475,-0.493014,0.064163,-0.054476,-0.086713,0.838432,0.204874,-0.459913,-0.208658,18.0,3.0,13.0,MTE,22
4.19,-0.77927,0.237168,0.728629,-0.688455,-0.526557,-0.498766,0.028192,-0.039727,-0.043913,0.840531,0.20017,-0.458856,-0.207101,18.0,3.0,13.0,MTE,22
4.2,-0.752943,0.276104,0.724227,-0.690983,-0.517696,-0.504512,-0.00819,-0.026112,0.024471,0.842619,0.195539,-0.457721,-0.205547,18.0,3.0,13.0,MTE,22
4.21,-0.738214,0.342171,0.716297,-0.693103,-0.508918,-0.510499,-0.028332,-0.010079,0.07866,0.844792,0.191066,-0.456338,-0.203902,18.0,3.0,13.0,MTE,22
4.22,-0.701835,0.38347,0.700733,-0.694791,-0.500267,-0.516719,-0.029285,-0.003731,0.069408,0.847036,0.186752,-0.454713,-0.202211,18.0,3.0,13.0,MTE,22
4.23,-0.63305,0.360688,0.680192,-0.696271,-0.491977,-0.522652,2.8e-05,-0.015805,0.046837,0.849203,0.182721,-0.453086,-0.200451,18.0,3.0,13.0,MTE,22
4.24,-0.617401,0.334587,0.690508,-0.697779,-0.483983,-0.528076,0.040339,-0.010691,0.066024,0.851224,0.178902,-0.451615,-0.198635,18.0,3.0,13.0,MTE,22
4.25,-0.681755,0.316411,0.702097,-0.699404,-0.475631,-0.533488,0.057833,-0.020829,0.074367,0.853231,0.174869,-0.450196,-0.196829,18.0,3.0,13.0,MTE,22
4.26,-0.700403,0.271913,0.633117,-0.700982,-0.467169,-0.538867,0.055718,-0.012003,0.050723,0.855163,0.170662,-0.448822,-0.195268,18.0,3.0,13.0,MTE,22
4.27,-0.641774,0.209956,0.552172,-0.702428,-0.459381,-0.543658,0.03983,0.012558,0.038058,0.856842,0.166694,-0.447643,-0.194038,18.0,3.0,13.0,MTE,22
4.28,-0.54689,0.175066,0.504854,-0.703783,-0.45241,-0.547735,0.020052,0.047152,0.047659,0.858272,0.163132,-0.446677,-0.192966,18.0,3.0,13.0,MTE,22
4.29,-0.402952,0.110223,0.496077,-0.70522,-0.446277,-0.55091,0.009755,0.048603,0.045294,0.859464,0.16011,-0.445993,-0.191773,18.0,3.0,13.0,MTE,22
4.3,-0.351654,0.07074,0.503061,-0.706969,-0.440716,-0.55314,0.020415,0.037792,0.065775,0.860429,0.157509,-0.445669,-0.190349,18.0,3.0,13.0,MTE,22
4.31,-0.435296,0.0331,0.47368,-0.708847,-0.435041,-0.555226,0.051834,0.024594,0.095479,0.861318,0.154764,-0.44546,-0.18906,18.0,3.0,13.0,MTE,22
4.32,-0.451604,-0.032617,0.406247,-0.710754,-0.429422,-0.557158,0.092636,-6e-06,0.091673,0.862074,0.151849,-0.445379,-0.188167,18.0,3.0,13.0,MTE,22
4.33,-0.4655,-0.096313,0.350297,-0.712722,-0.424199,-0.558643,0.130264,-0.014659,0.075733,0.862629,0.148989,-0.445512,-0.187597,18.0,3.0,13.0,MTE,22
4.34,-0.494339,-0.176415,0.287255,-0.714833,-0.419227,-0.559698,0.148091,-0.001595,0.067343,0.862982,0.146079,-0.445883,-0.187381,18.0,3.0,13.0,MTE,22
4.35,-0.516991,-0.238695,0.218811,-0.717057,-0.414559,-0.56033,0.13025,0.013604,0.088223,0.863122,0.143119,-0.446489,-0.187577,18.0,3.0,13.0,MTE,22
4.36,-0.41702,-0.274414,0.152918,-0.719264,-0.410556,-0.560448,0.074779,0.032703,0.077263,0.863062,0.140414,-0.447281,-0.188008,18.0,3.0,13.0,MTE,22
4.37,-0.286375,-0.251728,0.088195,-0.721278,-0.407753,-0.559907,0.007655,0.052696,0.096345,0.862807,0.138394,-0.448212,-0.188459,18.0,3.0,13.0,MTE,22
4.38,-0.00871,-0.173117,0.059219,-0.72274,-0.40637,-0.559026,-0.054711,0.053709,0.098547,0.86252,0.137386,-0.449012,-0.188607,18.0,3.0,13.0,MTE,22
4.39,0.120971,-0.078161,-0.011117,-0.723566,-0.406598,-0.55779,-0.053595,0.106962,0.112539,0.862194,0.137505,-0.449663,-0.188459,18.0,3.0,13.0,MTE,22
4.4,0.168998,0.022717,-0.064141,-0.723562,-0.407656,-0.557023,-0.00416,0.129946,0.147035,0.862005,0.138181,-0.449883,-0.188305,18.0,3.0,13.0,MTE,22
4.41,0.282595,0.060641,-0.105662,-0.722942,-0.409466,-0.5565,0.043697,0.091336,0.063229,0.861892,0.139358,-0.44981,-0.188127,18.0,3.0,13.0,MTE,22
4.42,0.3614,0.019763,-0.187731,-0.722129,-0.412376,-0.555406,0.095069,0.042732,0.005189,0.861607,0.141161,-0.449856,-0.187978,18.0,3.0,13.0,MTE,22
4.43,0.271596,0.011272,-0.256124,-0.721131,-0.415786,-0.554159,0.135422,0.018508,0.052648,0.861198,0.143075,-0.449944,-0.188195,18.0,3.0,13.0,MTE,22
4.44,0.214222,-0.010488,-0.302977,-0.719935,-0.419119,-0.553203,0.128123,-0.016871,0.067775,0.860769,0.14472,-0.44995,-0.188886,18.0,3.0,13.0,MTE,22
4.45,0.2263,-0.062157,-0.308321,-0.718834,-0.42257,-0.552008,0.096565,-0.032935,0.04685,0.860235,0.146339,-0.45009,-0.189738,18.0,3.0,13.0,MTE,22
4.46,0.2091,-0.077309,-0.306482,-0.717924,-0.425991,-0.55056,0.06639,0.017269,0.078453,0.859615,0.147898,-0.450384,-0.190637,18.0,3.0,13.0,MTE,22
4.47,0.342073,-0.041782,-0.307005,-0.716954,-0.429647,-0.548981,0.025456,0.068426,0.091523,0.85898,0.149657,-0.45068,-0.191425,18.0,3.0,13.0,MTE,22
4.48,0.573474,0.010008,-0.336028,-0.715635,-0.434459,-0.546911,0.013121,0.089107,0.09673,0.858295,0.15233,-0.450933,-0.191793,18.0,3.0,13.0,MTE,22
4.49,0.68585,0.019245,-0.336932,-0.714063,-0.440417,-0.544194,0.028806,0.100207,0.119099,0.857506,0.155884,-0.451224,-0.191783,18.0,3.0,13.0,MTE,22
4.5,0.671222,0.031143,-0.28577,-0.712504,-0.446353,-0.541393,0.042888,0.084094,0.126903,0.856735,0.159535,-0.4515,-0.191578,18.0,3.0,13.0,MTE,22
4.51,0.690716,-0.000148,-0.200092,-0.711315,-0.451805,-0.538426,0.053417,0.036186,0.06873,0.855986,0.16305,-0.451887,-0.191053,18.0,3.0,13.0,MTE,22
4.52,0.60785,-0.056133,-0.133057,-0.710704,-0.456497,-0.535266,0.060893,0.035461,-0.009213,0.855234,0.16621,-0.452483,-0.190284,18.0,3.0,13.0,MTE,22
4.53,0.545268,-0.197987,-0.10493,-0.710823,-0.460374,-0.531777,0.065193,0.064073,-0.0559,0.854365,0.168793,-0.453454,-0.189603,18.0,3.0,13.0,MTE,22
4.54,0.645773,-0.32955,-0.030734,-0.7119,-0.464028,-0.52714,0.046708,0.061959,-0.048422,0.853186,0.171235,-0.455092,-0.188794,18.0,3.0,13.0,MTE,22
4.55,0.698026,-0.384485,0.116054,-0.713993,-0.467343,-0.521349,-0.001736,0.094509,0.00487,0.8518,0.173724,-0.457324,-0.187379,18.0,3.0,13.0,MTE,22
4.56,0.704406,-0.252771,0.237608,-0.716552,-0.469644,-0.51574,-0.083619,0.145014,0.072121,0.850607,0.175957,-0.459532,-0.185302,18.0,3.0,13.0,MTE,22
4.57,0.917841,0.042338,0.309816,-0.718417,-0.471791,-0.511165,-0.183057,0.120244,0.031978,0.849895,0.178638,-0.460984,-0.182376,18.0,3.0,13.0,MTE,22
4.58,0.942337,0.299931,0.382468,-0.719134,-0.474192,-0.507925,-0.226743,0.07403,-0.085062,0.849759,0.18208,-0.461394,-0.178528,18.0,3.0,13.0,MTE,22
4.59,0.645751,0.356413,0.401758,-0.719314,-0.475385,-0.506553,-0.194917,0.063108,-0.183785,0.850157,0.184864,-0.46103,-0.174672,18.0,3.0,13.0,MTE,22
4.6,0.503127,0.291708,0.371055,-0.719484,-0.475444,-0.506257,-0.15364,0.016643,-0.288054,0.850728,0.18664,-0.460474,-0.171436,18.0,3.0,13.0,MTE,22
4.61,0.391726,0.198133,0.382046,-0.720016,-0.475072,-0.505849,-0.140045,-0.032084,-0.379161,0.85118,0.187931,-0.460171,-0.168574,18.0,3.0,13.0,MTE,22
4.62,0.197721,0.131027,0.429667,-0.721121,-0.473653,-0.505606,-0.145013,-0.037227,-0.364969,0.851612,0.188398,-0.460112,-0.166012,18.0,3.0,13.0,MTE,22
4.63,0.094313,0.129977,0.442038,-0.722558,-0.471173,-0.505871,-0.177329,-0.048343,-0.283893,0.852134,0.188069,-0.460103,-0.163718,18.0,3.0,13.0,MTE,22
4.64,-0.013168,0.183218,0.418327,-0.723836,-0.46827,-0.50674,-0.22198,-0.057502,-0.18253,0.852791,0.187396,-0.459905,-0.161611,18.0,3.0,13.0,MTE,22
4.65,-0.193311,0.272542,0.348195,-0.724471,-0.464926,-0.508906,-0.269273,-0.015741,-0.116704,0.853732,0.186241,-0.459196,-0.159982,18.0,3.0,13.0,MTE,22
4.66,-0.130113,0.34384,0.264615,-0.724322,-0.461801,-0.511955,-0.279661,0.025354,-0.091988,0.85484,0.18501,-0.458033,-0.158824,18.0,3.0,13.0,MTE,22
4.67,0.039062,0.490089,0.297141,-0.723446,-0.459601,-0.515162,-0.203403,0.026496,-0.027471,0.856048,0.184534,-0.456471,-0.157361,18.0,3.0,13.0,MTE,22
4.68,0.107858,0.600461,0.379088,-0.722183,-0.457554,-0.518745,-0.086045,0.050267,0.017265,0.857488,0.184536,-0.454504,-0.155202,18.0,3.0,13.0,MTE,22
4.69,-0.007085,0.660209,0.393449,-0.720665,-0.455002,-0.523082,0.029488,0.089218,0.031428,0.859182,0.184373,-0.452179,-0.152795,18.0,3.0,13.0,MTE,22
4.7,-0.075075,0.646068,0.355263,-0.718907,-0.452027,-0.528057,0.12061,0.094346,0.004193,0.861002,0.183811,-0.44965,-0.150677,18.0,3.0,13.0,MTE,22
4.71,-0.077216,0.551715,0.284689,-0.717138,-0.44933,-0.532743,0.189108,0.070332,-0.028048,0.862666,0.183216,-0.447281,-0.148925,18.0,3.0,13.0,MTE,22
4.72,-0.056413,0.407724,0.231433,-0.715721,-0.447101,-0.53651,0.226906,0.073291,-0.008457,0.863996,0.182687,-0.445388,-0.147533,18.0,3.0,13.0,MTE,22
4.73,-0.00696,0.342477,0.19384,-0.714701,-0.445312,-0.539352,0.211253,0.084991,0.056167,0.865016,0.18228,-0.443957,-0.146367,18.0,3.0,13.0,MTE,22
4.74,0.134752,0.341624,0.167485,-0.713703,-0.444393,-0.541427,0.136555,0.077236,0.102538,0.865827,0.18243,-0.442725,-0.145108,18.0,3.0,13.0,MTE,22
4.75,0.16729,0.505212,0.120276,-0.712098,-0.444174,-0.543714,0.030656,0.045096,0.180143,0.866718,0.183082,-0.441162,-0.143726,18.0,3.0,13.0,MTE,22
4.76,0.149202,0.736151,0.010899,-0.709013,-0.444531,-0.547442,-0.067858,0.029111,0.152438,0.867989,0.184039,-0.438644,-0.142534,18.0,3.0,13.0,MTE,22
4.77,0.187237,0.873693,-0.073058,-0.704386,-0.445687,-0.552452,-0.104452,-0.004386,0.0756,0.869589,0.185415,-0.435196,-0.141565,18.0,3.0,13.0,MTE,22
4.78,0.178533,0.865768,-0.103716,-0.699097,-0.447326,-0.557819,-0.060699,-0.033966,-0.022824,0.871266,0.187029,-0.431405,-0.140728,18.0,3.0,13.0,MTE,22
4.79,0.205802,0.642899,-0.161351,-0.69422,-0.449291,-0.562313,0.01113,-0.015079,-0.13181,0.872647,0.188679,-0.42807,-0.140154,18.0,3.0,13.0,MTE,22
4.8,0.170387,0.378092,-0.218749,-0.690515,-0.451689,-0.564948,0.086786,0.006315,-0.080682,0.873412,0.190277,-0.425817,-0.140093,18.0,3.0,13.0,MTE,22
4.81,0.2273,0.262486,-0.253251,-0.687658,-0.454417,-0.566242,0.080389,0.002986,-0.005871,0.873728,0.19184,-0.424354,-0.140432,18.0,3.0,13.0,MTE,22
4.82,0.201838,0.182476,-0.279572,-0.685178,-0.457543,-0.566732,0.001874,0.020149,0.015509,0.873791,0.193554,-0.423285,-0.14091,18.0,3.0,13.0,MTE,22
4.83,0.105637,0.103445,-0.317175,-0.683022,-0.460417,-0.567007,-0.084678,0.04022,0.053717,0.873733,0.194932,-0.42249,-0.141754,18.0,3.0,13.0,MTE,22
4.84,0.133393,0.044693,-0.332,-0.681079,-0.463292,-0.567003,-0.155438,0.002812,0.082093,0.873547,0.196165,-0.421922,-0.142887,18.0,3.0,13.0,MTE,22
4.85,0.120003,0.032487,-0.266013,-0.679474,-0.466174,-0.566566,-0.178437,-0.028684,0.114876,0.873257,0.197449,-0.421581,-0.143894,18.0,3.0,13.0,MTE,22
4.86,-0.076851,0.067704,-0.218899,-0.678073,-0.46793,-0.566797,-0.162763,0.019032,0.103464,0.873169,0.198098,-0.42114,-0.144825,18.0,3.0,13.0,MTE,22
4.87,-0.024145,0.058937,-0.267279,-0.676533,-0.469129,-0.567645,-0.117702,0.057508,0.001651,0.873217,0.198311,-0.420535,-0.145994,18.0,3.0,13.0,MTE,22
4.88,0.219071,-0.056476,-0.24211,-0.675245,-0.471532,-0.567187,-0.025911,0.028569,-0.095685,0.87293,0.19934,-0.420321,-0.146925,18.0,3.0,13.0,MTE,22
4.89,0.128761,-0.221811,-0.139162,-0.675157,-0.47396,-0.565265,0.075075,0.053245,-0.071164,0.872284,0.200508,-0.420909,-0.14749,18.0,3.0,13.0,MTE,22
4.9,-0.04437,-0.276027,-0.095927,-0.676071,-0.474909,-0.563373,0.116074,0.058695,-0.006177,0.871627,0.200704,-0.421938,-0.148163,18.0,3.0,13.0,MTE,22
4.91,-0.053469,-0.253989,-0.130283,-0.67704,-0.475378,-0.561812,0.087639,0.000402,0.000136,0.871033,0.200521,-0.422949,-0.149022,18.0,3.0,13.0,MTE,22
4.92,-0.142508,-0.226022,-0.122255,-0.677784,-0.475793,-0.560562,0.042378,-0.026114,0.035888,0.870501,0.200243,-0.423818,-0.150028,18.0,3.0,13.0,MTE,22
4.93,-0.297241,-0.085526,-0.103713,-0.678149,-0.475263,-0.56057,-0.021711,-0.000796,0.063836,0.870307,0.199359,-0.42423,-0.151163,18.0,3.0,13.0,MTE,22
4.94,-0.266563,0.039802,-0.127691,-0.677714,-0.474389,-0.561836,-0.097402,0.012627,-0.043846,0.870475,0.198315,-0.423973,-0.152289,18.0,3.0,13.0,MTE,22
4.95,-0.142682,0.061719,-0.133276,-0.676767,-0.474127,-0.563196,-0.095602,0.009085,-0.124975,0.870696,0.197739,-0.42344,-0.153252,18.0,3.0,13.0,MTE,22
4.96,-0.090787,0.062977,-0.091909,-0.675871,-0.474246,-0.564171,-0.028872,0.007678,-0.099754,0.870862,0.197541,-0.422956,-0.153899,18.0,3.0,13.0,MTE,22
4.97,-0.229054,0.155746,-0.09429,-0.674873,-0.473969,-0.565597,0.026969,0.023041,-0.039841,0.871166,0.197141,-0.4223,-0.154492,18.0,3.0,13.0,MTE,22
4.98,-0.254588,0.19189,-0.159748,-0.673245,-0.473364,-0.568038,0.064038,0.007895,-0.052583,0.871704,0.196427,-0.421186,-0.155408,18.0,3.0,13.0,MTE,22
4.99,-0.177048,0.092459,-0.151555,-0.67165,-0.473266,-0.570005,0.122273,-0.014985,-0.035418,0.87209,0.195976,-0.420227,-0.156401,18.0,3.0,13.0,MTE,22
5.0,-0.130132,0.063202,-0.099858,-0.670655,-0.473129,-0.571288,0.127808,-0.000793,0.064956,0.872312,0.195559,-0.419658,-0.157215,18.0,3.0,13.0,MTE,22
5.01,0.006724,0.111139,-0.087291,-0.669769,-0.473388,-0.572113,0.055679,0.00267,0.128372,0.872467,0.195544,-0.419173,-0.157663,18.0,3.0,13.0,MTE,22
5.02,0.09824,0.203595,-0.122041,-0.668401,-0.474383,-0.572888,-0.030558,0.017596,0.161144,0.872655,0.196114,-0.418444,-0.157852,18.0,3.0,13.0,MTE,22
5.03,0.14514,0.247732,-0.127649,-0.666465,-0.475993,-0.573808,-0.06762,0.02302,0.116075,0.872909,0.19714,-0.417411,-0.157905,18.0,3.0,13.0,MTE,22
5.04,0.076415,0.198017,-0.137671,-0.664526,-0.477517,-0.574789,-0.045083,0.016289,0.049703,0.873164,0.198073,-0.41638,-0.158049,18.0,3.0,13.0,MTE,22
5.05,0.035142,0.091063,-0.112514,-0.663033,-0.478558,-0.575647,0.006707,-0.003634,-0.005774,0.873359,0.198635,-0.415597,-0.158325,18.0,3.0,13.0,MTE,22
5.06,-0.022268,0.038066,-0.07374,-0.662133,-0.479087,-0.576242,0.054299,-0.010857,0.027246,0.873465,0.198826,-0.415147,-0.158682,18.0,3.0,13.0,MTE,22
5.07,0.003099,0.008902,-0.063938,-0.661437,-0.479545,-0.57666,0.067428,-0.007698,0.023895,0.87352,0.198965,-0.414829,-0.159036,18.0,3.0,13.0,MTE,22
5.08,0.070686,-0.062377,-0.057733,-0.661187,-0.48042,-0.576219,0.06527,0.002316,0.014177,0.873343,0.19936,-0.414905,-0.159315,18.0,3.0,13.0,MTE,22
5.09,0.223404,-0.077238,-0.079628,-0.661351,-0.481999,-0.57471,0.021702,0.018758,0.030917,0.872887,0.200216,-0.415402,-0.159446,18.0,3.0,13.0,MTE,22
5.1,0.399299,-0.026021,-0.098559,-0.661495,-0.484641,-0.572317,-0.053059,0.022605,0.042242,0.872243,0.201869,-0.416042,-0.159221,18.0,3.0,13.0,MTE,22
5.11,0.444005,0.034989,-0.130004,-0.661223,-0.487909,-0.56985,-0.117829,0.02073,0.023173,0.871619,0.204028,-0.416471,-0.158762,18.0,3.0,13.0,MTE,22
5.12,0.418764,0.077004,-0.151472,-0.660343,-0.491252,-0.567995,-0.119045,-0.013524,-0.012526,0.871152,0.206223,-0.416503,-0.158402,18.0,3.0,13.0,MTE,22
5.13,0.273833,0.088797,-0.135984,-0.659132,-0.494165,-0.566874,-0.049715,-0.064459,-0.051656,0.870873,0.208123,-0.41623,-0.158167,18.0,3.0,13.0,MTE,22
5.14,0.084035,-0.006126,-0.165757,-0.658046,-0.49618,-0.566375,0.028652,-0.069021,-0.135911,0.870682,0.209246,-0.415967,-0.158434,18.0,3.0,13.0,MTE,22
5.15,-0.042743,-0.152258,-0.153407,-0.657618,-0.497416,-0.565788,0.095148,-0.064214,-0.183297,0.87037,0.209627,-0.416128,-0.159218,18.0,3.0,13.0,MTE,22
5.16,-0.105071,-0.234169,-0.137973,-0.657974,-0.497902,-0.564946,0.107299,-0.021202,-0.127696,0.869942,0.209411,-0.416742,-0.160233,18.0,3.0,13.0,MTE,22
5.17,0.003897,-0.242303,-0.161378,-0.658603,-0.498475,-0.563707,0.056415,0.026307,-0.040434,0.869397,0.209228,-0.417576,-0.161251,18.0,3.0,13.0,MTE,22
5.18,0.211299,-0.216755,-0.174067,-0.659233,-0.500069,-0.561554,-0.015175,0.040962,0.054993,0.868645,0.209797,-0.418579,-0.161965,18.0,3.0,13.0,MTE,22
5.19,0.399057,-0.104657,-0.163572,-0.659316,-0.502867,-0.558952,-0.074495,0.043135,0.130516,0.867847,0.21133,-0.419361,-0.162227,18.0,3.0,13.0,MTE,22
5.2,0.65793,0.009031,-0.148921,-0.658751,-0.506846,-0.556016,-0.093324,0.02769,0.135041,0.867071,0.213914,-0.419801,-0.161849,18.0,3.0,13.0,MTE,22
5.21,0.75177,0.047924,-0.127226,-0.657888,-0.511741,-0.552544,-0.054057,0.009956,0.128288,0.866248,0.217351,-0.420103,-0.160891,18.0,3.0,13.0,MTE,22
5.22,0.772932,0.0675,-0.144913,-0.65688,-0.516822,-0.549002,0.004262,0.023337,0.100608,0.865432,0.220994,-0.42031,-0.159776,18.0,3.0,13.0,MTE,22
5.23,0.901544,0.073376,-0.194493,-0.655602,-0.52251,-0.545133,0.037987,0.029559,0.037915,0.86451,0.225007,-0.420483,-0.158708,18.0,3.0,13.0,MTE,22
5.24,0.975945,0.067195,-0.170671,-0.654237,-0.528897,-0.540594,0.064256,0.011929,0.023489,0.863432,0.22957,-0.420715,-0.157424,18.0,3.0,13.0,MTE,22
5.25,0.89892,0.045491,-0.172366,-0.653042,-0.535058,-0.535956,0.078625,-0.004829,0.046195,0.862327,0.234022,-0.421017,-0.156111,18.0,3.0,13.0,MTE,22
5.26,0.7946,0.006904,-0.20379,-0.65189,-0.540836,-0.531542,0.06699,-0.041623,0.047472,0.861229,0.238111,-0.421346,-0.155099,18.0,3.0,13.0,MTE,22
5.27,0.646653,-0.059245,-0.218403,-0.650854,-0.546062,-0.527452,0.041723,-0.057774,0.077134,0.860147,0.241664,-0.42175,-0.15451,18.0,3.0,13.0,MTE,22
5.28,0.557988,-0.079367,-0.256371,-0.649947,-0.550744,-0.523688,0.003295,-0.048621,0.1081,0.859082,0.244681,-0.42224,-0.154346,18.0,3.0,13.0,MTE,22
5.29,0.545528,-0.022083,-0.327995,-0.648621,-0.555474,-0.520327,-0.046554,-0.018974,0.097186,0.858075,0.247595,-0.422532,-0.1545,18.0,3.0,13.0,MTE,22
5.3,0.645952,0.038384,-0.367579,-0.646613,-0.5609,-0.516994,-0.057901,0.001894,0.07542,0.857062,0.25094,-0.422531,-0.154732,18.0,3.0,13.0,MTE,22
5.31,0.590324,0.068518,-0.359619,-0.644264,-0.566479,-0.513834,-0.020332,0.01614,0.086008,0.856109,0.254434,-0.422311,-0.154901,18.0,3.0,13.0,MTE,22
5.32,0.481013,0.052583,-0.393401,-0.641778,-0.57162,-0.511246,-0.004066,0.006144,0.030136,0.855282,0.257558,-0.421949,-0.155292,18.0,3.0,13.0,MTE,22
5.33,0.377846,-0.018818,-0.424434,-0.639318,-0.576499,-0.508844,0.005239,-0.048455,-0.035697,0.85443,0.260313,-0.421681,-0.156113,18.0,3.0,13.0,MTE,22
5.34,0.185129,-0.093823,-0.418536,-0.637199,-0.580618,-0.506813,0.027153,-0.071954,-0.038765,0.853601,0.262361,-0.421616,-0.157389,18.0,3.0,13.0,MTE,22
5.35,0.06262,-0.144344,-0.452872,-0.635246,-0.583971,-0.505411,0.013069,-0.055754,-0.044516,0.85286,0.263672,-0.42163,-0.159168,18.0,3.0,13.0,MTE,22
5.36,0.022351,-0.195141,-0.444898,-0.633469,-0.587048,-0.504075,-0.005813,-0.025546,-0.054916,0.852081,0.264667,-0.421798,-0.161229,18.0,3.0,13.0,MTE,22
5.37,0.033659,-0.148384,-0.420524,-0.631827,-0.589844,-0.502871,-0.01568,0.021836,-0.036237,0.851335,0.26548,-0.422001,-0.163293,18.0,3.0,13.0,MTE,22
5.38,0.088371,-0.130532,-0.4017,-0.630071,-0.592642,-0.501782,-0.012537,0.049841,-0.050495,0.850661,0.266413,-0.422058,-0.165128,18.0,3.0,13.0,MTE,22
5.39,0.130597,-0.104031,-0.382652,-0.6283,-0.595764,-0.500304,0.018635,0.031829,-0.041154,0.849921,0.267693,-0.422124,-0.166691,18.0,3.0,13.0,MTE,22
5.4,0.041136,-0.099634,-0.399522,-0.626451,-0.598649,-0.499177,0.024797,0.004442,-0.033263,0.849272,0.268803,-0.422086,-0.168301,18.0,3.0,13.0,MTE,22
5.41,-0.02238,-0.113882,-0.381845,-0.624614,-0.601161,-0.498461,0.01118,-0.041631,-0.018141,0.848702,0.269582,-0.422013,-0.170103,18.0,3.0,13.0,MTE,22
5.42,-0.135582,-0.078635,-0.342131,-0.622919,-0.603089,-0.498253,-0.016546,-0.068878,0.018745,0.848269,0.269963,-0.421893,-0.171946,18.0,3.0,13.0,MTE,22
5.43,-0.244102,0.027303,-0.332617,-0.62105,-0.604182,-0.499261,-0.038129,-0.048986,0.043709,0.848185,0.269805,-0.421396,-0.173817,18.0,3.0,13.0,MTE,22
5.44,-0.201776,0.149492,-0.326997,-0.618582,-0.605075,-0.501239,-0.036905,-0.019498,-0.0108,0.848408,0.26961,-0.420346,-0.175566,18.0,3.0,13.0,MTE,22
5.45,-0.097535,0.131801,-0.292829,-0.615946,-0.606271,-0.503037,0.019846,0.028161,-0.095779,0.848641,0.269779,-0.419167,-0.176994,18.0,3.0,13.0,MTE,22
5.46,-0.062611,0.056058,-0.251577,-0.613826,-0.607551,-0.504083,0.099482,0.073859,-0.083166,0.848697,0.270094,-0.418339,-0.178199,18.0,3.0,13.0,MTE,22
5.47,-0.005812,0.002329,-0.237359,-0.612196,-0.60884,-0.50451,0.121702,0.078734,-0.032325,0.848594,0.270453,-0.417852,-0.179286,18.0,3.0,13.0,MTE,22
5.48,0.011252,0.037403,-0.151934,-0.610919,-0.610159,-0.504463,0.093158,0.038031,0.017708,0.848414,0.270968,-0.417546,-0.180068,18.0,3.0,13.0,MTE,22
5.49,-0.150307,0.049246,-0.065995,-0.610028,-0.610475,-0.505159,0.053815,0.035494,0.037813,0.848505,0.270946,-0.417144,-0.180606,18.0,3.0,13.0,MTE,22
5.5,-0.250214,-0.002829,-0.014457,-0.609679,-0.60963,-0.506598,0.051238,0.026012,0.040564,0.848809,0.270148,-0.416799,-0.18117,18.0,3.0,13.0,MTE,22
5.51,-0.206778,-0.050719,0.046205,-0.609888,-0.608351,-0.507883,0.061258,-0.002153,0.033762,0.849086,0.269092,-0.416711,-0.181644,18.0,3.0,13.0,MTE,22
5.52,-0.118396,-0.095801,0.167675,-0.610907,-0.606871,-0.508429,0.069586,0.00154,0.034506,0.849247,0.268106,-0.417019,-0.181641,18.0,3.0,13.0,MTE,22
5.53,-0.066679,-0.111043,0.221393,-0.612697,-0.60517,-0.508302,0.045772,0.06327,0.039994,0.84932,0.267193,-0.417681,-0.181127,18.0,3.0,13.0,MTE,22
5.54,0.086146,-0.066607,0.175871,-0.614372,-0.603879,-0.507816,-0.011391,0.109479,0.011142,0.849335,0.266659,-0.418312,-0.180384,18.0,3.0,13.0,MTE,22
5.55,0.274276,-0.069928,0.185818,-0.615761,-0.603802,-0.506224,-0.050056,0.073971,-0.038271,0.84909,0.267065,-0.419004,-0.179326,18.0,3.0,13.0,MTE,22
5.56,0.185932,-0.106767,0.237803,-0.617504,-0.603722,-0.504191,-0.048207,0.032937,-0.028707,0.84877,0.26759,-0.419881,-0.178,18.0,3.0,13.0,MTE,22
5.57,0.003298,-0.141069,0.205633,-0.61949,-0.602776,-0.502885,-0.052095,-0.009315,-0.016296,0.848592,0.267389,-0.420786,-0.177012,18.0,3.0,13.0,MTE,22
5.58,-0.069848,-0.174798,0.138268,-0.621289,-0.601564,-0.502115,-0.069384,-0.06584,-0.041677,0.848454,0.26675,-0.421648,-0.176586,18.0,3.0,13.0,MTE,22
5.59,-0.191826,-0.234727,0.137207,-0.623136,-0.600092,-0.501588,-0.073061,-0.079794,-0.063246,0.848306,0.265749,-0.422591,-0.176551,18.0,3.0,13.0,MTE,22
5.6,-0.286095,-0.285494,0.125847,-0.62527,-0.597989,-0.501444,-0.065511,-0.046649,-0.05335,0.848203,0.264173,-0.423663,-0.176844,18.0,3.0,13.0,MTE,22
5.61,-0.224168,-0.337207,0.08155,-0.627444,-0.596012,-0.501083,-0.05734,-0.013165,-0.052292,0.847983,0.262549,-0.424884,-0.177386,18.0,3.0,13.0,MTE,22
5.62,-0.176702,-0.346999,0.079072,-0.629646,-0.594562,-0.500042,-0.038796,0.013736,-0.010502,0.847562,0.261256,-0.426291,-0.17793,18.0,3.0,13.0,MTE,22
5.63,-0.132488,-0.29777,0.089039,-0.631753,-0.593243,-0.498949,-0.02259,0.045804,0.035219,0.847155,0.26012,-0.427624,-0.178332,18.0,3.0,13.0,MTE,22
5.64,-0.056511,-0.283221,0.085237,-0.633716,-0.592212,-0.497683,0.00037,0.04578,0.048724,0.846736,0.259266,-0.428882,-0.178549,18.0,3.0,13.0,MTE,22
5.65,-0.046351,-0.281703,0.107352,-0.635695,-0.591374,-0.496154,0.031188,0.020405,0.067992,0.846274,0.258616,-0.430164,-0.178599,18.0,3.0,13.0,MTE,22
5.66,-0.105466,-0.263099,0.133392,-0.637795,-0.59022,-0.494831,0.038491,-0.003484,0.065631,0.845884,0.25779,-0.431427,-0.178593,18.0,3.0,13.0,MTE,22
5.67,-0.176215,-0.261481,0.110586,-0.639815,-0.588705,-0.494027,0.030806,-0.022653,0.027062,0.845624,0.256681,-0.432552,-0.178701,18.0,3.0,13.0,MTE,22
5.68,-0.245633,-0.303221,0.088263,-0.641804,-0.587035,-0.493433,0.023076,-0.037583,-0.005956,0.845364,0.255327,-0.433695,-0.179096,18.0,3.0,13.0,MTE,22
5.69,-0.266503,-0.287878,0.067941,-0.643733,-0.585228,-0.493068,0.011927,-0.039512,-0.022618,0.845125,0.253774,-0.434816,-0.179715,18.0,3.0,13.0,MTE,22
5.7,-0.196366,-0.291341,0.033721,-0.645442,-0.583715,-0.492627,-0.004933,-0.010431,-0.072376,0.844852,0.25239,-0.435874,-0.180386,18.0,3.0,13.0,MTE,22
5.71,-0.151647,-0.30804,-0.002689,-0.647051,-0.582755,-0.491651,-0.012937,0.025916,-0.062274,0.844418,0.251355,-0.43703,-0.18106,18.0,3.0,13.0,MTE,22
5.72,-0.07021,-0.221426,-0.04724,-0.648236,-0.582331,-0.490592,-0.03168,0.045862,-0.010552,0.843957,0.250668,-0.438029,-0.181751,18.0,3.0,13.0,MTE,22
5.73,0.039715,-0.107481,-0.0855,-0.64864,-0.582717,-0.489599,-0.05389,0.021453,-0.000513,0.843547,0.250611,-0.438628,-0.182287,18.0,3.0,13.0,MTE,22
5.74,0.012494,-0.002885,-0.084483,-0.648408,-0.583459,-0.489023,-0.042648,-0.009467,0.020136,0.843301,0.250911,-0.438785,-0.182632,18.0,3.0,13.0,MTE,22
5.75,-0.090709,0.080491,-0.081906,-0.647716,-0.583813,-0.489517,-0.008091,-0.032124,0.021225,0.843362,0.250965,-0.438473,-0.183026,18.0,3.0,13.0,MTE,22
5.76,-0.188543,0.072939,-0.093515,-0.646805,-0.583721,-0.490829,0.03801,-0.053303,-0.013642,0.843628,0.250663,-0.437897,-0.183592,18.0,3.0,13.0,MTE,22
5.77,-0.307112,0.012599,-0.073655,-0.646098,-0.583041,-0.492565,0.080424,-0.055157,-0.011616,0.843957,0.249833,-0.43738,-0.184444,18.0,3.0,13.0,MTE,22
5.78,-0.420126,-0.025803,-0.039842,-0.645824,-0.581604,-0.49462,0.091609,-0.041001,0.021277,0.844338,0.248412,-0.437014,-0.185482,18.0,3.0,13.0,MTE,22
5.79,-0.467338,0.002607,-0.020895,-0.645723,-0.57955,-0.497155,0.070742,-0.021463,0.056466,0.844839,0.246552,-0.436617,-0.186613,18.0,3.0,13.0,MTE,22
5.8,-0.403733,0.054117,-0.016422,-0.64549,-0.577449,-0.499895,0.026502,0.00056,0.041903,0.845431,0.244749,-0.436062,-0.187602,18.0,3.0,13.0,MTE,22
5.81,-0.341543,0.068953,-0.020266,-0.645028,-0.575691,-0.502512,-0.009376,0.021187,0.012156,0.84602,0.243261,-0.435394,-0.188431,18.0,3.0,13.0,MTE,22
5.82,-0.266187,0.041171,-0.018696,-0.644657,-0.574277,-0.504602,-0.017315,0.025418,0.016046,0.846485,0.242059,-0.434863,-0.189114,18.0,3.0,13.0,MTE,22
5.83,-0.128213,0.078368,-0.030983,-0.644184,-0.573434,-0.506162,-0.026928,0.020166,0.025861,0.846834,0.241314,-0.434381,-0.189614,18.0,3.0,13.0,MTE,22
5.84,-0.06516,0.108968,-0.04254,-0.643502,-0.573235,-0.507254,-0.035086,0.027229,-0.002298,0.847104,0.241115,-0.433862,-0.189847,18.0,3.0,13.0,MTE,22
5.85,-0.053339,0.112443,-0.079664,-0.642572,-0.573319,-0.508337,-0.020392,0.024201,-0.017954,0.847369,0.241105,-0.433243,-0.190089,18.0,3.0,13.0,MTE,22
5.86,0.00752,0.052872,-0.090731,-0.64108,-0.574999,-0.508324,0.014173,-0.011671,-0.02906,0.847236,0.241944,-0.432783,-0.190663,18.0,3.0,13.0,MTE,22
5.87,-0.062784,-0.005839,-0.059817,-0.640242,-0.576473,-0.507709,0.047591,-0.036808,-0.003033,0.846937,0.24264,-0.432749,-0.191187,18.0,3.0,13.0,MTE,22
5.88,-0.159717,-0.010445,-0.048062,-0.639983,-0.576673,-0.507809,0.043379,-0.032198,0.019543,0.846846,0.24251,-0.432764,-0.191717,18.0,3.0,13.0,MTE,22
5.89,-0.145839,-0.0103,-0.045221,-0.639948,-0.576025,-0.508588,0.022501,-0.03515,0.014539,0.846965,0.241861,-0.432677,-0.19221,18.0,3.0,13.0,MTE,22
5.9,-0.161458,-0.025962,-0.008113,-0.64018,-0.575144,-0.509292,0.01631,-0.017858,0.014998,0.847092,0.241123,-0.432682,-0.192564,18.0,3.0,13.0,MTE,22
5.91,-0.181435,-0.044725,0.015633,-0.640744,-0.574066,-0.509799,0.022535,0.01213,0.024661,0.847174,0.240269,-0.432864,-0.192863,18.0,3.0,13.0,MTE,22
5.92,-0.143311,-0.046143,0.009897,-0.641419,-0.572528,-0.51068,0.029511,0.0172,0.027907,0.847384,0.239166,-0.432966,-0.193083,18.0,3.0,13.0,MTE,22
5.93,-0.091016,-0.051421,0.013494,-0.641967,-0.571173,-0.511507,0.028259,0.00083,0.023775,0.847598,0.238232,-0.433003,-0.193212,18.0,3.0,13.0,MTE,22
5.94,-0.110804,-0.044209,0.02994,-0.641948,-0.570654,-0.512111,0.015041,-0.007868,0.031871,0.847709,0.237766,-0.432911,-0.193506,18.0,3.0,13.0,MTE,22
5.95,-0.146602,-0.021639,0.028411,-0.641263,-0.571544,-0.511976,-0.013355,-0.015278,0.023084,0.847524,0.238035,-0.432841,-0.194141,18.0,3.0,13.0,MTE,22
5.96,-0.127603,-0.008065,0.011706,-0.640711,-0.572503,-0.511596,-0.027807,-0.020683,-0.012666,0.847276,0.238358,-0.432883,-0.194732,18.0,3.0,13.0,MTE,22
5.97,-0.127062,-0.013528,0.012798,-0.640335,-0.573203,-0.511283,-0.016388,-0.013742,-0.019693,0.847064,0.238546,-0.43296,-0.195254,18.0,3.0,13.0,MTE,22
5.98,-0.133395,-0.021171,0.024155,-0.640254,-0.573358,-0.511209,0.009258,0.002451,-0.014426,0.846953,0.23845,-0.433056,-0.195641,18.0,3.0,13.0,MTE,22
5.99,-0.132269,-0.005681,0.026127,-0.640442,-0.572908,-0.511479,0.027939,0.015291,-0.003475,0.846976,0.238036,-0.433128,-0.195886,18.0,3.0,13.0,MTE,22
6.0,-0.117211,-0.008662,0.018402,-0.640549,-0.572529,-0.51177,0.036957,0.016712,-0.007029,0.847005,0.23767,-0.433161,-0.196132,18.0,3.0,13.0,MTE,22
6.01,-0.076332,0.006742,0.010106,-0.640334,-0.572859,-0.511669,0.0316,0.010145,-0.007007,0.8469,0.237723,-0.43319,-0.196454,18.0,3.0,13.0,MTE,22
6.02,-0.051104,-0.012739,0.026933,-0.640417,-0.573371,-0.510991,0.019217,0.009879,-0.001125,0.846659,0.237938,-0.433463,-0.196632,18.0,3.0,13.0,MTE,22
6.03,-0.057142,-0.007234,0.034334,-0.640914,-0.573473,-0.510253,0.000243,0.013109,0.013183,0.846442,0.237966,-0.433873,-0.19663,18.0,3.0,13.0,MTE,22
6.04,-0.072065,0.013999,0.03232,-0.641223,-0.572918,-0.510488,-0.016919,0.017834,0.01566,0.84652,0.237624,-0.433925,-0.196591,18.0,3.0,13.0,MTE,22
6.05,-0.095195,0.053436,0.01123,-0.641099,-0.572233,-0.511411,-0.012831,0.02252,0.002195,0.84678,0.237188,-0.433632,-0.196643,18.0,3.0,13.0,MTE,22
6.06,-0.080061,0.025964,-0.012034,-0.640592,-0.571637,-0.512711,0.008955,0.010083,-0.029586,0.847117,0.236758,-0.433117,-0.196845,18.0,3.0,13.0,MTE,22
6.07,-0.085254,-0.028108,-0.009426,-0.640206,-0.571205,-0.513675,0.038781,-0.005028,-0.027051,0.847332,0.23637,-0.432772,-0.197145,18.0,3.0,13.0,MTE,22
6.08,-0.117284,-0.072567,0.001636,-0.640019,-0.570624,-0.514552,0.038305,-0.002161,-0.004033,0.847501,0.235833,-0.432558,-0.197529,18.0,3.0,13.0,MTE,22
6.09,-0.116227,-0.052908,-0.02026,-0.639862,-0.570134,-0.51529,0.002853,0.011891,0.019715,0.847604,0.235296,-0.432424,-0.19802,18.0,3.0,13.0,MTE,22
6.1,-0.065013,-0.010878,-0.034119,-0.639722,-0.569911,-0.515709,-0.036776,0.016262,0.022744,0.847635,0.234968,-0.43236,-0.198419,18.0,3.0,13.0,MTE,22
6.11,-0.048786,0.027579,-0.020645,-0.639673,-0.569835,-0.515855,-0.0409,0.022212,0.031496,0.847632,0.234826,-0.432353,-0.198613,18.0,3.0,13.0,MTE,22
6.12,-0.042412,0.047671,-0.005953,-0.639791,-0.569526,-0.51605,-0.011347,0.025641,0.022627,0.847691,0.234632,-0.432346,-0.198607,18.0,3.0,13.0,MTE,22
6.13,-0.040644,0.044075,-0.020074,-0.639784,-0.569043,-0.516591,0.025923,0.022702,0.00385,0.847858,0.234357,-0.432182,-0.198575,18.0,3.0,13.0,MTE,22
6.14,-0.05185,-0.005071,-0.03566,-0.639403,-0.568676,-0.517467,0.044097,0.019603,-0.008977,0.84807,0.234061,-0.431836,-0.198774,18.0,3.0,13.0,MTE,22
6.15,-0.051344,-0.015922,-0.033263,-0.638826,-0.568739,-0.518109,0.031541,0.009489,-0.002734,0.848165,0.233941,-0.431529,-0.199174,18.0,3.0,13.0,MTE,22
6.16,-0.030606,0.020595,-0.021395,-0.6383,-0.568985,-0.518487,-0.004827,0.007934,-0.001883,0.848203,0.233972,-0.431293,-0.199486,18.0,3.0,13.0,MTE,22
6.17,-0.007554,0.04463,-0.009917,-0.638182,-0.569067,-0.518543,-0.028414,0.024252,-0.005475,0.848211,0.234011,-0.431239,-0.199524,18.0,3.0,13.0,MTE,22
6.18,0.022335,0.068765,-0.008679,-0.638299,-0.568969,-0.518506,-0.031531,0.037597,-0.005603,0.848243,0.234036,-0.431247,-0.199339,18.0,3.0,13.0,MTE,22
6.19,0.054041,0.088374,-0.007426,-0.638399,-0.569016,-0.518332,-0.021498,0.036469,-0.011926,0.848264,0.234212,-0.431252,-0.199035,18.0,3.0,13.0,MTE,22
6.2,0.065376,0.106044,0.000587,-0.638189,-0.569158,-0.518434,-0.019144,0.037481,-0.02783,0.848376,0.234492,-0.431041,-0.198685,18.0,3.0,13.0,MTE,22
6.21,0.101342,0.029554,-0.0153,-0.637744,-0.569497,-0.518609,-0.021344,0.045678,-0.047294,0.848476,0.234838,-0.430751,-0.198476,18.0,3.0,13.0,MTE,22
6.22,0.099687,0.138069,-0.000925,-0.637098,-0.570015,-0.518834,-0.020144,0.021447,0.009053,0.848597,0.23532,-0.430357,-0.198245,18.0,3.0,13.0,MTE,22
6.23,0.057436,0.151333,-0.026231,-0.636059,-0.57044,-0.519641,-0.027271,0.018835,-0.032148,0.848897,0.235794,-0.429629,-0.197974,18.0,3.0,13.0,MTE,22
6.24,0.031533,0.081413,-0.042201,-0.635383,-0.570705,-0.520177,0.000877,-9.6e-05,-0.038005,0.849082,0.236065,-0.429168,-0.197857,18.0,3.0,13.0,MTE,22
6.25,-0.011325,0.054334,-0.024296,-0.635234,-0.57039,-0.520705,0.010615,-0.013396,0.011306,0.849263,0.235939,-0.428929,-0.197751,18.0,3.0,13.0,MTE,22
6.26,-0.031111,0.099301,-0.026571,-0.635235,-0.569567,-0.521603,-0.017109,-0.000791,0.027768,0.849558,0.235507,-0.428643,-0.197616,18.0,3.0,13.0,MTE,22
6.27,0.04785,0.154432,-0.017065,-0.634822,-0.568907,-0.522826,-0.042058,0.008558,-0.005311,0.849982,0.235275,-0.428057,-0.197343,18.0,3.0,13.0,MTE,22
6.28,0.02157,0.124139,-0.009802,-0.634312,-0.568231,-0.524177,-0.020214,0.041589,-0.026848,0.850469,0.235098,-0.427364,-0.196956,18.0,3.0,13.0,MTE,22
6.29,0.038749,0.062825,-0.007441,-0.634076,-0.567111,-0.525674,0.013577,0.040896,-0.015494,0.850986,0.234604,-0.42676,-0.196623,18.0,3.0,13.0,MTE,22
6.3,0.047576,-0.014044,-0.009575,-0.634397,-0.567104,-0.525294,0.012739,0.008174,-0.016409,0.850927,0.23469,-0.426935,-0.196394,18.0,3.0,13.0,MTE,22
6.31,0.01281,-0.005818,0.022295,-0.634768,-0.566374,-0.525633,-0.014829,-0.00963,0.023863,0.851079,0.234335,-0.426931,-0.196165,18.0,3.0,13.0,MTE,22
6.32,-0.013495,0.037105,0.036369,-0.634691,-0.565897,-0.526239,-0.041624,-0.001165,0.026468,0.851288,0.23412,-0.426695,-0.19603,18.0,3.0,13.0,MTE,22
6.33,0.004487,0.067182,0.029319,-0.634454,-0.566177,-0.526224,-0.031638,0.017929,0.01623,0.851304,0.234352,-0.426576,-0.195941,18.0,3.0,13.0,MTE,22
6.34,0.085843,0.05393,0.02355,-0.634581,-0.566547,-0.525672,0.011245,0.023319,-0.003183,0.851219,0.234733,-0.42669,-0.195609,18.0,3.0,13.0,MTE,22
6.35,0.116515,0.040132,0.037163,-0.634835,-0.566589,-0.525321,0.046318,0.032211,-0.008431,0.851238,0.235006,-0.426745,-0.195077,18.0,3.0,13.0,MTE,22
6.36,0.109368,0.020425,0.013718,-0.635006,-0.566391,-0.525327,0.050396,0.028,-0.011172,0.851353,0.235123,-0.426678,-0.194581,18.0,3.0,13.0,MTE,22
6.37,0.080508,0.038528,-0.022913,-0.63486,-0.566491,-0.525395,0.034396,-0.004493,0.003895,0.851433,0.235325,-0.426526,-0.194319,18.0,3.0,13.0,MTE,22
6.38,0.068206,0.057889,-0.031163,-0.634366,-0.566927,-0.525521,0.014951,-0.047758,0.008996,0.851489,0.235668,-0.426263,-0.194235,18.0,3.0,13.0,MTE,22
6.39,0.026337,0.051718,-0.017965,-0.634053,-0.567526,-0.525253,0.005925,-0.056284,-0.004425,0.851428,0.236094,-0.426185,-0.194156,18.0,3.0,13.0,MTE,22
6.4,-0.023528,0.006489,-0.020412,-0.634068,-0.567641,-0.525111,0.011112,-0.020967,-0.007542,0.85139,0.23617,-0.426225,-0.194141,18.0,3.0,13.0,MTE,22
6.41,-0.017219,-0.012759,-0.050728,-0.634145,-0.567565,-0.5251,0.027288,0.011337,0.013763,0.851356,0.236052,-0.426297,-0.194273,18.0,3.0,13.0,MTE,22
6.42,0.011874,0.002638,-0.069495,-0.633849,-0.567727,-0.525282,0.031585,0.019769,0.035826,0.851354,0.23605,-0.426192,-0.194516,18.0,3.0,13.0,MTE,22
6.43,0.005693,0.001747,-0.074767,-0.633257,-0.568008,-0.525692,0.019656,0.021118,0.025173,0.851408,0.236119,-0.425913,-0.194807,18.0,3.0,13.0,MTE,22
6.44,-0.024354,-0.052437,-0.071797,-0.632761,-0.568194,-0.526088,0.009852,0.012087,0.015956,0.851437,0.236075,-0.425705,-0.195191,18.0,3.0,13.0,MTE,22
6.45,-0.038251,-0.102487,-0.065683,-0.632581,-0.568671,-0.52579,0.006116,-0.008996,0.023974,0.851231,0.236121,-0.425855,-0.195706,18.0,3.0,13.0,MTE,22
6.46,-0.065918,-0.109708,-0.045183,-0.632623,-0.569368,-0.524984,0.004495,-0.016463,0.036947,0.850861,0.23625,-0.426256,-0.196287,18.0,3.0,13.0,MTE,22
6.47,-0.102024,-0.093552,-0.04329,-0.632679,-0.569735,-0.524518,0.005787,-0.014692,0.037534,0.850585,0.236167,-0.426574,-0.196887,18.0,3.0,13.0,MTE,22
6.48,-0.108468,-0.08876,-0.041697,-0.632763,-0.569627,-0.524534,0.017422,-0.014708,0.014875,0.850459,0.235813,-0.426761,-0.19745,18.0,3.0,13.0,MTE,22
6.49,-0.114074,-0.117819,-0.025392,-0.633053,-0.569304,-0.524535,0.035535,-0.014085,0.006239,0.850337,0.235332,-0.427027,-0.197975,18.0,3.0,13.0,MTE,22
6.5,-0.121974,-0.129981,-0.009499,-0.633629,-0.568914,-0.524262,0.038506,-0.006648,0.006409,0.850146,0.234812,-0.427472,-0.198451,18.0,3.0,13.0,MTE,22
6.51,-0.104018,-0.112924,-0.012903,-0.634247,-0.568394,-0.524078,0.010682,0.003483,0.005905,0.849991,0.234233,-0.427897,-0.198883,18.0,3.0,13.0,MTE,22
6.52,-0.068028,-0.060694,-0.011715,-0.634664,-0.568054,-0.523944,-0.022715,0.016006,-0.003934,0.849876,0.233831,-0.428195,-0.199206,18.0,3.0,13.0,MTE,22
6.53,-0.054639,-0.020236,-0.015058,-0.634778,-0.568181,-0.523667,-0.031207,0.02857,-0.014831,0.849728,0.233758,-0.428397,-0.199488,18.0,3.0,13.0,MTE,22
6.54,-0.051634,-0.004211,-0.022381,-0.634731,-0.568688,-0.523174,-0.010426,0.026589,-0.023259,0.84952,0.233932,-0.428589,-0.199758,18.0,3.0,13.0,MTE,22
6.55,-0.061782,-0.018268,-0.029292,-0.634627,-0.569082,-0.522871,0.016188,0.014029,-0.032534,0.84936,0.234028,-0.428714,-0.200058,18.0,3.0,13.0,MTE,22
6.56,-0.066805,-0.043427,-0.026819,-0.634483,-0.569296,-0.522813,0.023856,-0.004404,-0.028426,0.849257,0.233983,-0.428772,-0.200424,18.0,3.0,13.0,MTE,22
6.57,-0.114904,-0.027719,-0.017982,-0.634223,-0.569401,-0.523015,0.001883,-0.013394,-0.010524,0.849212,0.233844,-0.42873,-0.200866,18.0,3.0,13.0,MTE,22
6.58,-0.136195,-0.035208,-0.021442,-0.633934,-0.569218,-0.523563,-0.022392,-0.01559,-0.01498,0.849254,0.233502,-0.428597,-0.20137,18.0,3.0,13.0,MTE,22
6.59,-0.13666,-0.047596,-0.014557,-0.633991,-0.5687,-0.524057,-0.021832,-0.014537,0.001383,0.849295,0.232964,-0.428601,-0.201807,18.0,3.0,13.0,MTE,22
6.6,-0.155999,-0.05757,0.008379,-0.634524,-0.567542,-0.524667,-0.007764,0.003089,0.033135,0.849408,0.232081,-0.428725,-0.202086,18.0,3.0,13.0,MTE,22
6.61,-0.141243,-0.053134,0.016346,-0.635163,-0.566033,-0.525523,-0.00241,0.01452,0.038615,0.84961,0.231013,-0.428802,-0.202297,18.0,3.0,13.0,MTE,22
6.62,-0.104591,-0.064971,0.026716,-0.635676,-0.564711,-0.526324,0.008296,0.017592,0.031588,0.849808,0.230094,-0.428829,-0.202457,18.0,3.0,13.0,MTE,22
6.63,-0.11347,-0.08781,0.04421,-0.636091,-0.563557,-0.527059,0.021574,0.022709,0.024755,0.849984,0.229281,-0.428836,-0.202626,18.0,3.0,13.0,MTE,22
6.64,-0.117241,-0.113514,0.034342,-0.636533,-0.562719,-0.527421,0.02493,0.021551,0.009583,0.850024,0.228602,-0.428988,-0.202901,18.0,3.0,13.0,MTE,22
6.65,-0.097629,-0.131464,0.010574,-0.637147,-0.562279,-0.527149,0.022065,-0.001213,-0.002697,0.849861,0.22811,-0.429408,-0.203252,18.0,3.0,13.0,MTE,22
6.66,-0.088787,-0.15184,0.014194,-0.63796,-0.561844,-0.526629,0.016912,-0.016052,-0.00459,0.84963,0.227618,-0.429972,-0.203575,18.0,3.0,13.0,MTE,22
6.67,-0.122905,-0.136658,0.01318,-0.638852,-0.561454,-0.525963,0.004636,-0.015069,0.0178,0.849353,0.227136,-0.430613,-0.203914,18.0,3.0,13.0,MTE,22
6.68,-0.120657,-0.105786,-0.003644,-0.639662,-0.561126,-0.525329,-0.015382,-0.012239,0.014678,0.849072,0.226672,-0.431225,-0.204306,18.0,3.0,13.0,MTE,22
6.69,-0.101058,-0.082097,-0.006587,-0.64027,-0.560878,-0.524853,-0.011997,-0.012548,0.006878,0.848843,0.226285,-0.431705,-0.204674,18.0,3.0,13.0,MTE,22
6.7,-0.097167,-0.077684,0.008255,-0.640757,-0.560534,-0.524626,0.017756,-0.004361,-0.000795,0.848706,0.225889,-0.432043,-0.204965,18.0,3.0,13.0,MTE,22
6.71,-0.114251,-0.092237,0.009385,-0.641241,-0.55999,-0.524615,0.045706,0.008507,-0.004026,0.848633,0.225373,-0.432319,-0.205256,18.0,3.0,13.0,MTE,22
6.72,-0.102882,-0.108851,0.00133,-0.641707,-0.5593,-0.524782,0.048048,0.017445,0.001405,0.848598,0.224745,-0.432549,-0.2056,18.0,3.0,13.0,MTE,22
6.73,-0.070792,-0.091048,0.003492,-0.642076,-0.558926,-0.524728,0.019945,0.017376,0.005456,0.848498,0.22431,-0.432806,-0.20595,18.0,3.0,13.0,MTE,22
6.74,-0.030008,-0.059502,0.020773,-0.642367,-0.558817,-0.52449,-0.009092,0.014597,0.009734,0.848378,0.224114,-0.433045,-0.206156,18.0,3.0,13.0,MTE,22
6.75,-0.029149,-0.011327,0.03076,-0.64267,-0.558756,-0.524182,-0.014526,0.016596,0.016843,0.848282,0.224041,-0.43326,-0.206177,18.0,3.0,13.0,MTE,22
6.76,-0.042436,0.009259,0.021824,-0.642842,-0.558547,-0.524195,-0.001796,0.019225,0.003992,0.84829,0.22391,-0.433321,-0.206158,18.0,3.0,13.0,MTE,22
6.77,-0.024952,0.001413,0.012021,-0.642912,-0.558414,-0.52425,0.020659,0.007358,-0.017376,0.848305,0.223821,-0.433335,-0.206165,18.0,3.0,13.0,MTE,22
6.78,-0.007217,-0.011402,0.027457,-0.642918,-0.558341,-0.52432,0.035359,-0.007058,-0.023638,0.848328,0.223782,-0.433314,-0.206155,18.0,3.0,13.0,MTE,22
6.79,-0.028782,-0.014195,0.048626,-0.642947,-0.558044,-0.524601,0.02727,0.000457,-0.015835,0.84842,0.223623,-0.433235,-0.206114,18.0,3.0,13.0,MTE,22
6.8,-0.037225,0.002276,0.04332,-0.643011,-0.557537,-0.525061,0.006445,0.01144,0.001654,0.848571,0.223345,-0.433113,-0.206053,18.0,3.0,13.0,MTE,22
6.81,-0.022898,0.037651,0.032231,-0.643059,-0.557069,-0.525499,-0.01458,0.010072,0.013704,0.848725,0.223115,-0.432978,-0.205948,18.0,3.0,13.0,MTE,22
6.82,-0.039448,0.058612,0.038627,-0.643106,-0.556584,-0.525955,-0.019781,0.011891,0.011139,0.848896,0.222898,-0.432827,-0.205798,18.0,3.0,13.0,MTE,22
6.83,-0.050387,0.050191,0.043645,-0.64323,-0.556005,-0.526416,-0.006535,0.019094,0.004489,0.849077,0.222637,-0.432695,-0.20561,18.0,3.0,13.0,MTE,22
6.84,-0.035168,0.033946,0.049386,-0.643362,-0.555313,-0.526984,0.009756,0.019699,-0.004663,0.849292,0.222313,-0.432533,-0.205414,18.0,3.0,13.0,MTE,22
6.85,-0.010261,0.014609,0.02944,-0.643331,-0.55488,-0.527478,0.011358,0.023462,-0.014148,0.849469,0.222122,-0.432346,-0.205285,18.0,3.0,13.0,MTE,22
6.86,-0.00303,0.009786,0.013554,-0.643136,-0.554771,-0.527831,-0.001517,0.024345,-0.006822,0.849581,0.222091,-0.432157,-0.205252,18.0,3.0,13.0,MTE,22
6.87,0.013909,0.014967,0.008839,-0.642919,-0.554775,-0.528091,-0.017222,0.013225,0.002029,0.849659,0.222117,-0.431994,-0.205244,18.0,3.0,13.0,MTE,22
6.88,0.002127,0.03487,0.010902,-0.642849,-0.554719,-0.528234,-0.02573,0.006776,0.017553,0.849725,0.22214,-0.431899,-0.205145,18.0,3.0,13.0,MTE,22
6.89,-0.008945,0.034971,0.00159,-0.642867,-0.554647,-0.528288,-0.019822,0.008641,0.011153,0.849765,0.222145,-0.431865,-0.205046,18.0,3.0,13.0,MTE,22
6.9,-0.016336,0.02724,-0.001458,-0.642893,-0.554499,-0.528412,-0.000585,0.010477,0.00386,0.849818,0.222089,-0.431822,-0.204978,18.0,3.0,13.0,MTE,22
6.91,-0.024795,0.006,-0.006418,-0.642907,-0.554197,-0.528713,0.024941,0.012098,-0.00269,0.849909,0.221914,-0.431738,-0.204965,18.0,3.0,13.0,MTE,22
6.92,-0.040502,-0.029066,-0.012893,-0.642911,-0.553843,-0.529078,0.035764,0.006846,-0.000738,0.849992,0.221653,-0.431661,-0.205065,18.0,3.0,13.0,MTE,22
6.93,-0.06154,-0.04941,-0.015428,-0.643022,-0.553289,-0.529522,0.023408,0.005133,-0.001621,0.850081,0.221225,-0.431623,-0.205239,18.0,3.0,13.0,MTE,22
6.94,-0.05978,-0.046971,-0.020622,-0.643253,-0.552712,-0.529845,-0.001812,0.008339,0.00543,0.850123,0.22075,-0.43168,-0.205457,18.0,3.0,13.0,MTE,22
6.95,-0.005021,-0.02035,-0.015083,-0.643473,-0.552475,-0.529824,-0.021841,0.005768,0.005639,0.850083,0.220517,-0.43181,-0.2056,18.0,3.0,13.0,MTE,22
6.96,0.007019,0.005978,-0.003625,-0.643669,-0.552588,-0.529468,-0.015068,0.009589,0.003863,0.84998,0.220572,-0.431989,-0.20559,18.0,3.0,13.0,MTE,22
6.97,-0.009466,-0.016803,-0.008226,-0.643813,-0.552583,-0.529299,0.007002,0.016465,-0.006025,0.849933,0.220561,-0.432092,-0.205581,18.0,3.0,13.0,MTE,22
6.98,-0.021462,-0.052367,-0.026953,-0.643937,-0.552569,-0.529162,0.027635,0.008334,-0.003293,0.849861,0.220474,-0.432216,-0.205714,18.0,3.0,13.0,MTE,22
6.99,-0.031296,-0.068698,-0.033343,-0.643956,-0.552572,-0.529137,0.024373,-0.005915,0.003212,0.849786,0.220333,-0.432302,-0.205989,18.0,3.0,13.0,MTE,22
7.0,-0.044197,-0.050112,-0.009467,-0.643976,-0.552567,-0.529116,0.009272,-0.010925,0.013568,0.849708,0.220177,-0.432393,-0.206287,18.0,3.0,13.0,MTE,22
7.01,-0.028951,-0.041327,0.009193,-0.644099,-0.552352,-0.529191,-0.009022,-0.000474,0.005448,0.849689,0.219953,-0.432464,-0.206455,18.0,3.0,13.0,MTE,22
7.02,0.008654,-0.041972,0.023093,-0.644455,-0.552144,-0.528975,-0.005295,0.01296,0.002684,0.849628,0.219801,-0.432666,-0.206448,18.0,3.0,13.0,MTE,22
7.03,0.016998,-0.040507,0.047485,-0.645004,-0.5519,-0.528561,0.019363,0.012074,0.015057,0.84955,0.2197,-0.432956,-0.206264,18.0,3.0,13.0,MTE,22
7.04,-0.016717,-0.039868,0.058325,-0.64559,-0.551455,-0.528309,0.038321,0.004825,0.018345,0.84953,0.219496,-0.433205,-0.206044,18.0,3.0,13.0,MTE,22
7.05,-0.048085,-0.05864,0.044336,-0.646118,-0.55076,-0.528389,0.036697,-0.010183,0.009132,0.849582,0.219097,-0.433362,-0.205924,18.0,3.0,13.0,MTE,22
7.06,-0.036365,-0.076702,0.038946,-0.646595,-0.550257,-0.52833,0.014591,-0.020391,0.004694,0.849558,0.21874,-0.433575,-0.205952,18.0,3.0,13.0,MTE,22
7.07,-0.027246,-0.062284,0.053799,-0.647066,-0.549987,-0.528034,-0.013182,-0.014558,0.012684,0.849468,0.218532,-0.433851,-0.205963,18.0,3.0,13.0,MTE,22
7.08,0.028229,-0.023708,0.061912,-0.64756,-0.549895,-0.527524,-0.029534,0.004881,0.011472,0.849353,0.218507,-0.434157,-0.205819,18.0,3.0,13.0,MTE,22
7.09,0.116994,0.024407,0.058828,-0.647909,-0.54993,-0.527059,-0.023188,0.02312,0.001454,0.849319,0.218714,-0.434321,-0.205394,18.0,3.0,13.0,MTE,22
7.1,0.184916,0.045733,0.058088,-0.648075,-0.550242,-0.526529,0.006641,0.031626,-0.000464,0.849319,0.219216,-0.434373,-0.204746,18.0,3.0,13.0,MTE,22
7.11,0.205718,0.027433,0.069853,-0.648194,-0.550912,-0.525681,0.031617,0.024759,-0.005401,0.849247,0.219983,-0.434473,-0.204009,18.0,3.0,13.0,MTE,22
7.12,0.18121,0.019393,0.075268,-0.648374,-0.55161,-0.524725,0.040098,0.001287,-0.005197,0.849139,0.220754,-0.434632,-0.203285,18.0,3.0,13.0,MTE,22
7.13,0.133982,0.014668,0.082682,-0.648561,-0.55216,-0.523916,0.029741,-0.020182,-0.001322,0.849054,0.221395,-0.434772,-0.202644,18.0,3.0,13.0,MTE,22
7.14,0.065238,0.016196,0.101868,-0.648881,-0.552319,-0.523352,0.015168,-0.027866,0.007895,0.849026,0.221758,-0.434911,-0.202068,18.0,3.0,13.0,MTE,22
7.15,0.048292,0.042077,0.113119,-0.649341,-0.552089,-0.523023,0.005405,-0.028035,0.012983,0.849066,0.221877,-0.435039,-0.201492,18.0,3.0,13.0,MTE,22
7.16,0.078981,0.063198,0.131067,-0.649889,-0.551547,-0.522915,0.005724,-0.028531,0.018155,0.849211,0.22189,-0.435095,-0.200743,18.0,3.0,13.0,MTE,22
7.17,0.091203,0.08364,0.152417,-0.650431,-0.550713,-0.52312,0.009089,-0.003822,0.016437,0.849496,0.221833,-0.435006,-0.19979,18.0,3.0,13.0,MTE,22
7.18,0.106418,0.080824,0.141952,-0.650851,-0.54989,-0.523463,0.010867,0.019571,0.016261,0.849822,0.221797,-0.434827,-0.19883,18.0,3.0,13.0,MTE,22
7.19,0.178487,0.090147,0.148997,-0.65105,-0.54948,-0.523646,0.007175,0.012798,0.007335,0.850113,0.222056,-0.43459,-0.197814,18.0,3.0,13.0,MTE,22
7.2,0.182339,0.085494,0.181077,-0.651257,-0.549463,-0.523407,0.005551,0.011331,0.002289,0.850308,0.222612,-0.434442,-0.196671,18.0,3.0,13.0,MTE,22
7.21,0.137917,0.073537,0.195364,-0.651701,-0.549377,-0.522944,0.009215,0.017013,0.006877,0.850442,0.223124,-0.434446,-0.195501,18.0,3.0,13.0,MTE,22
7.22,0.141033,0.080504,0.168925,-0.652183,-0.549365,-0.522356,0.01049,-0.002881,0.012224,0.850512,0.22362,-0.43453,-0.194443,18.0,3.0,13.0,MTE,22
7.23,0.115943,0.085692,0.161991,-0.652555,-0.549436,-0.521817,0.014798,-0.030566,0.003613,0.850582,0.224148,-0.434568,-0.193437,18.0,3.0,13.0,MTE,22
7.24,0.04181,0.059139,0.182141,-0.653067,-0.549091,-0.521538,0.026511,-0.04765,0.011406,0.85071,0.224374,-0.434612,-0.192513,18.0,3.0,13.0,MTE,22
7.25,-0.010526,0.029625,0.199794,-0.653891,-0.548035,-0.521618,0.032003,-0.055924,0.016521,0.850933,0.224128,-0.434693,-0.191628,18.0,3.0,13.0,MTE,22
7.26,-0.029449,0.037767,0.220816,-0.65488,-0.546551,-0.521933,0.023212,-0.048557,0.012625,0.851226,0.223617,-0.434775,-0.190735,18.0,3.0,13.0,MTE,22
7.27,-0.081263,0.04725,0.232335,-0.655912,-0.544731,-0.522539,0.020124,-0.0252,0.014833,0.851602,0.222896,-0.434796,-0.189852,18.0,3.0,13.0,MTE,22
7.28,-0.030118,0.064025,0.274961,-0.656951,-0.54274,-0.523305,0.020874,-0.03215,0.021016,0.852047,0.222128,-0.434749,-0.188859,18.0,3.0,13.0,MTE,22
7.29,-0.029245,0.085101,0.347188,-0.658233,-0.540595,-0.523915,0.030273,-0.045953,0.008183,0.852527,0.22144,-0.434749,-0.187496,18.0,3.0,13.0,MTE,22
7.3,-0.112088,0.061663,0.376881,-0.659752,-0.538075,-0.524598,0.031304,-0.033702,-0.003036,0.853042,0.220548,-0.43481,-0.186061,18.0,3.0,13.0,MTE,22
7.31,-0.150727,0.061077,0.403501,-0.661407,-0.53527,-0.525383,0.03131,-0.05027,0.00904,0.853564,0.219431,-0.434924,-0.184715,18.0,3.0,13.0,MTE,22
7.32,-0.18705,0.056858,0.460741,-0.663381,-0.531529,-0.52669,0.0221,-0.06956,0.008486,0.85428,0.217834,-0.434976,-0.183168,18.0,3.0,13.0,MTE,22
7.33,-0.19924,0.085581,0.574081,-0.66575,-0.527088,-0.528161,0.022776,-0.086773,0.048318,0.8551,0.215937,-0.435076,-0.18134,18.0,3.0,13.0,MTE,22
7.34,-0.320339,0.159263,0.686539,-0.6684,-0.52152,-0.530338,0.010151,-0.087595,0.043674,0.856224,0.2136,-0.434978,-0.179021,18.0,3.0,13.0,MTE,22
7.35,-0.439726,0.178772,0.710057,-0.671144,-0.51471,-0.533516,0.009508,-0.056396,0.00956,0.857634,0.210525,-0.43465,-0.176696,18.0,3.0,13.0,MTE,22
7.36,-0.478404,0.18512,0.701454,-0.673784,-0.507523,-0.537062,0.017549,-0.068207,-0.054399,0.859129,0.20721,-0.434204,-0.174436,18.0,3.0,13.0,MTE,22
7.37,-0.534075,0.138342,0.669704,-0.676328,-0.500113,-0.540803,0.007566,-0.073175,-0.120864,0.860625,0.203661,-0.433729,-0.172413,18.0,3.0,13.0,MTE,22
7.38,-0.491136,0.010491,0.679415,-0.679274,-0.492778,-0.543835,-0.00815,-0.086415,-0.136951,0.861876,0.200062,-0.433656,-0.17055,18.0,3.0,13.0,MTE,22
7.39,-0.587505,0.04397,0.727529,-0.682633,-0.485018,-0.546598,-0.037353,-0.088209,-0.056262,0.863048,0.19621,-0.433823,-0.168664,18.0,3.0,13.0,MTE,22
7.4,-0.549699,0.048862,0.713189,-0.685834,-0.47688,-0.549743,-0.06386,-0.085239,-0.044251,0.864331,0.192175,-0.433817,-0.166745,18.0,3.0,13.0,MTE,22
7.41,-0.514371,0.007846,0.73183,-0.689105,-0.469106,-0.552335,-0.016111,-0.110026,-0.002764,0.865468,0.188416,-0.433972,-0.164722,18.0,3.0,13.0,MTE,22
7.42,-0.694266,-0.065049,0.793906,-0.692781,-0.460441,-0.555021,0.04091,-0.10949,0.04579,0.86662,0.184108,-0.434273,-0.162728,18.0,3.0,13.0,MTE,22
7.43,-0.803662,-0.20954,0.766649,-0.697132,-0.450726,-0.557543,0.077045,-0.103809,0.045351,0.867649,0.178973,-0.434968,-0.161107,18.0,3.0,13.0,MTE,22
7.44,-0.747997,-0.271606,0.768818,-0.701933,-0.441047,-0.559256,0.074751,-0.128136,0.061163,0.868404,0.173743,-0.436102,-0.159697,18.0,3.0,13.0,MTE,22
7.45,-0.748343,-0.269062,0.829874,-0.706932,-0.431268,-0.560584,0.046685,-0.119589,0.067511,0.869077,0.16855,-0.437377,-0.158104,18.0,3.0,13.0,MTE,22
7.46,-0.823539,-0.256345,0.887663,-0.712063,-0.420685,-0.56213,0.03471,-0.083954,0.067608,0.869849,0.163007,-0.438592,-0.156297,18.0,3.0,13.0,MTE,22
7.47,-0.793896,-0.225135,0.884032,-0.717176,-0.409775,-0.563688,0.04257,-0.066498,0.046064,0.870631,0.157332,-0.439776,-0.154417,18.0,3.0,13.0,MTE,22
7.48,-0.759448,-0.162338,0.87507,-0.721827,-0.399036,-0.565452,0.060985,-0.07359,0.022559,0.871484,0.151847,-0.4407,-0.152453,18.0,3.0,13.0,MTE,22
7.49,-0.73257,-0.174133,0.893891,-0.726195,-0.388371,-0.567282,0.081115,-0.087551,-0.01359,0.872369,0.146497,-0.441472,-0.150375,18.0,3.0,13.0,MTE,22
7.5,-0.781081,-0.252798,0.919185,-0.730915,-0.377552,-0.568523,0.088245,-0.09399,-0.014332,0.873095,0.141094,-0.442528,-0.14821,18.0,3.0,13.0,MTE,22
7.51,-0.949265,-0.254622,0.91448,-0.735827,-0.365835,-0.569845,0.053194,-0.060022,0.027548,0.873797,0.135059,-0.443663,-0.146291,18.0,3.0,13.0,MTE,22
7.52,-0.876451,-0.200997,0.908254,-0.740416,-0.353822,-0.571484,0.008727,-0.058165,0.007137,0.874559,0.128812,-0.444596,-0.144531,18.0,3.0,13.0,MTE,22
7.53,-0.795433,-0.155479,0.987131,-0.744721,-0.34205,-0.573055,0.006943,-0.066764,-0.005085,0.875367,0.122955,-0.44537,-0.142341,18.0,3.0,13.0,MTE,22
7.54,-0.865729,-0.195856,1.070317,-0.749173,-0.329573,-0.574562,0.036802,-0.04056,0.02346,0.876214,0.116907,-0.446152,-0.139752,18.0,3.0,13.0,MTE,22
7.55,-0.933234,-0.218538,1.07293,-0.753889,-0.316295,-0.575854,0.055708,-0.026936,0.055987,0.876991,0.110405,-0.447083,-0.137164,18.0,3.0,13.0,MTE,22
7.56,-0.947764,-0.175591,1.063123,-0.758337,-0.302724,-0.577307,0.039999,-0.039806,0.037313,0.877787,0.10371,-0.447874,-0.134695,18.0,3.0,13.0,MTE,22
7.57,-0.918626,-0.200225,1.049667,-0.762537,-0.289267,-0.578672,0.028086,-0.038095,-0.010607,0.878549,0.097104,-0.448592,-0.132243,18.0,3.0,13.0,MTE,22
7.58,-0.913969,-0.240806,1.061248,-0.76682,-0.275885,-0.579547,0.038258,-0.028238,0.02753,0.879168,0.090561,-0.449472,-0.129761,18.0,3.0,13.0,MTE,22
7.59,-0.922818,-0.199335,1.081037,-0.771026,-0.262282,-0.580281,0.030167,-0.030764,0.073354,0.879749,0.083948,-0.450347,-0.127208,18.0,3.0,13.0,MTE,22
7.6,-0.909037,-0.113439,1.090303,-0.774689,-0.248539,-0.581451,0.010651,-0.04803,0.045516,0.880461,0.077358,-0.450877,-0.124555,18.0,3.0,13.0,MTE,22
7.61,-0.888122,-0.133334,1.10061,-0.778024,-0.234806,-0.582704,0.019266,-0.044384,-0.019377,0.881205,0.070869,-0.451249,-0.12178,18.0,3.0,13.0,MTE,22
7.62,-0.93975,-0.240354,1.09767,-0.781627,-0.22085,-0.583339,0.050106,-0.013434,-0.032033,0.88176,0.064229,-0.451891,-0.119033,18.0,3.0,13.0,MTE,22
7.63,-0.959588,-0.328857,1.065166,-0.78561,-0.206741,-0.583159,0.064144,0.005051,4.4e-05,0.882046,0.057371,-0.452912,-0.116506,18.0,3.0,13.0,MTE,22
7.64,-0.859388,-0.362433,1.073264,-0.789789,-0.193037,-0.582211,0.049173,-0.026903,0.02757,0.882111,0.050738,-0.454225,-0.113957,18.0,3.0,13.0,MTE,22
7.65,-0.909955,-0.338317,1.126036,-0.793876,-0.179239,-0.581063,0.017433,-0.042319,0.052483,0.88214,0.044181,-0.45554,-0.111177,18.0,3.0,13.0,MTE,22
7.66,-0.958606,-0.310982,1.124392,-0.797709,-0.164752,-0.580101,-0.015142,-0.038236,0.053017,0.882211,0.037253,-0.456685,-0.108414,18.0,3.0,13.0,MTE,22
7.67,-0.929185,-0.228375,1.107238,-0.801056,-0.150335,-0.579404,-0.024445,-0.056254,0.045972,0.882344,0.03038,-0.457575,-0.105691,18.0,3.0,13.0,MTE,22
7.68,-0.912969,-0.179699,1.115244,-0.803802,-0.136076,-0.579125,-0.010453,-0.058108,0.011834,0.882594,0.023672,-0.458123,-0.102909,18.0,3.0,13.0,MTE,22
7.69,-0.938143,-0.19168,1.137639,-0.806321,-0.121635,-0.578837,0.03003,-0.040566,0.006846,0.882839,0.016907,-0.45858,-0.100072,18.0,3.0,13.0,MTE,22
7.7,-1.001134,-0.194081,1.171602,-0.808793,-0.106669,-0.578339,0.07985,-0.030035,0.032181,0.88302,0.009874,-0.459057,-0.097189,18.0,3.0,13.0,MTE,22
7.71,-1.009443,-0.197756,1.179722,-0.811047,-0.091206,-0.577828,0.099178,-0.013759,0.010231,0.883186,0.00257,-0.459434,-0.094318,18.0,3.0,13.0,MTE,22
7.72,-0.885029,-0.301634,1.186603,-0.813458,-0.076105,-0.576622,0.107205,-0.014135,-0.016899,0.883165,-0.004459,-0.460075,-0.091269,18.0,3.0,13.0,MTE,22
7.73,-0.793375,-0.414609,1.205863,-0.816365,-0.061519,-0.574251,0.085636,-0.003636,0.017809,0.882835,-0.011086,-0.46125,-0.087905,18.0,3.0,13.0,MTE,22
7.74,-0.754866,-0.388844,1.236673,-0.819369,-0.04708,-0.57133,0.042926,-0.000528,0.073573,0.882365,-0.017493,-0.462633,-0.084246,18.0,3.0,13.0,MTE,22
7.75,-0.741315,-0.297112,1.241627,-0.821842,-0.032607,-0.568782,-0.006726,-0.011827,0.094157,0.881995,-0.023825,-0.463726,-0.080472,18.0,3.0,13.0,MTE,22
7.76,-0.707302,-0.224155,1.242244,-0.823609,-0.018201,-0.566866,-0.034713,-0.051532,0.081316,0.881794,-0.03004,-0.464397,-0.076635,18.0,3.0,13.0,MTE,22
7.77,-0.750016,-0.158218,1.252211,-0.824833,-0.003828,-0.565363,-0.024395,-0.074678,0.059534,0.881694,-0.036192,-0.464767,-0.072777,18.0,3.0,13.0,MTE,22
7.78,-0.877587,-0.1709,1.287721,-0.82569,0.011334,-0.564011,0.010596,-0.074856,0.034958,0.881612,-0.042832,-0.46493,-0.069031,18.0,3.0,13.0,MTE,22
7.79,-0.859288,-0.23946,1.288668,-0.826585,0.026979,-0.562165,0.061616,-0.07274,-0.006088,0.88137,-0.049796,-0.465229,-0.065343,18.0,3.0,13.0,MTE,22
7.8,-0.737453,-0.327857,1.29654,-0.827765,0.042098,-0.559493,0.108542,-0.069335,0.020339,0.880892,-0.056393,-0.465911,-0.061444,18.0,3.0,13.0,MTE,22
7.81,-0.791134,-0.349753,1.327699,-0.829044,0.057244,-0.556246,0.122608,-0.038491,0.10042,0.88025,-0.0629,-0.46682,-0.057293,18.0,3.0,13.0,MTE,22
7.82,-0.802113,-0.289591,1.318737,-0.82996,0.072787,-0.553054,0.075916,-0.01076,0.107879,0.879598,-0.069675,-0.467566,-0.053239,18.0,3.0,13.0,MTE,22
7.83,-0.676177,-0.188733,1.27166,-0.830264,0.087639,-0.550438,0.034274,-0.041817,0.045982,0.879089,-0.076039,-0.467973,-0.049203,18.0,3.0,13.0,MTE,22
7.84,-0.708617,-0.122225,1.307506,-0.829869,0.102056,-0.548546,0.028172,-0.078786,-0.01342,0.878773,-0.082069,-0.467965,-0.045073,18.0,3.0,13.0,MTE,22
7.85,-0.84614,-0.238159,1.333603,-0.829345,0.117352,-0.546275,0.066665,-0.084546,-0.047826,0.878326,-0.088654,-0.467978,-0.041008,18.0,3.0,13.0,MTE,22
7.86,-0.958511,-0.329412,1.330614,-0.829252,0.133322,-0.54274,0.113523,-0.075384,0.014664,0.877492,-0.095784,-0.468461,-0.03712,18.0,3.0,13.0,MTE,22
7.87,-0.997738,-0.350747,1.341651,-0.829203,0.149806,-0.538498,0.098063,-0.039897,0.056824,0.876432,-0.103351,-0.469116,-0.033418,18.0,3.0,13.0,MTE,22
7.88,-0.760458,-0.331366,1.372478,-0.828911,0.165843,-0.534231,0.059868,-0.031367,0.034506,0.875359,-0.110488,-0.469762,-0.029367,18.0,3.0,13.0,MTE,22
7.89,-0.506319,-0.290525,1.405337,-0.828167,0.180749,-0.530536,0.038113,-0.017739,0.045047,0.874451,-0.116568,-0.470259,-0.024579,18.0,3.0,13.0,MTE,22
7.9,-0.402439,-0.185425,1.440163,-0.826778,0.194839,-0.527708,0.022671,0.009889,0.063444,0.873777,-0.121829,-0.470429,-0.019199,18.0,3.0,13.0,MTE,22
7.91,-0.663096,-0.052856,1.424517,-0.824452,0.209491,-0.525731,0.006947,0.016186,0.054326,0.873308,-0.127527,-0.46997,-0.014095,18.0,3.0,13.0,MTE,22
7.92,-0.751086,-0.088787,1.390721,-0.821714,0.224888,-0.523652,0.024824,-0.080296,-0.01535,0.872774,-0.133998,-0.469275,-0.009603,18.0,3.0,13.0,MTE,22
7.93,-0.892881,-0.179204,1.414806,-0.819163,0.240627,-0.520645,0.091807,-0.186031,0.002396,0.871949,-0.140832,-0.468875,-0.005299,18.0,3.0,13.0,MTE,22
7.94,-1.091364,-0.278353,1.486405,-0.816724,0.257674,-0.5163,0.137754,-0.162887,0.04903,0.870717,-0.148584,-0.468799,-0.001147,18.0,3.0,13.0,MTE,22
7.95,-1.131271,-0.31395,1.525439,-0.81425,0.275804,-0.510812,0.143183,-0.080812,0.065698,0.869136,-0.157041,-0.468969,0.003012,18.0,3.0,13.0,MTE,22
7.96,-0.948717,-0.306714,1.546754,-0.81142,0.293676,-0.505323,0.104298,-0.022268,0.061643,0.867528,-0.165212,-0.469088,0.007487,18.0,3.0,13.0,MTE,22
7.97,-0.720468,-0.28002,1.535057,-0.808274,0.310338,-0.500383,0.04651,0.033885,0.046083,0.866046,-0.172401,-0.469134,0.012496,18.0,3.0,13.0,MTE,22
7.98,-0.641022,-0.178876,1.549353,-0.804478,0.326171,-0.496415,0.004551,0.052659,0.053406,0.864807,-0.178932,-0.468802,0.017798,18.0,3.0,13.0,MTE,22
7.99,-0.627173,-0.136201,1.564219,-0.800021,0.341831,-0.49307,0.005221,-0.009266,0.02699,0.863711,-0.18531,-0.468108,0.023202,18.0,3.0,13.0,MTE,22
8.0,-0.687162,-0.167715,1.575637,-0.795256,0.35759,-0.489589,0.048353,-0.089478,0.017086,0.862541,-0.191798,-0.467353,0.028589,18.0,3.0,13.0,MTE,22
8.01,-0.754404,-0.24759,1.627663,-0.790403,0.373814,-0.48531,0.103071,-0.145237,0.040822,0.861102,-0.198608,-0.466797,0.034029,18.0,3.0,13.0,MTE,22
8.02,-0.867014,-0.276415,1.645042,-0.785416,0.390695,-0.480081,0.10135,-0.120035,0.06109,0.85935,-0.205898,-0.466439,0.039467,18.0,3.0,13.0,MTE,22
8.03,-0.845988,-0.27659,1.642402,-0.780145,0.407772,-0.474442,0.052164,-0.04591,0.038651,0.857446,-0.21343,-0.466076,0.044803,18.0,3.0,13.0,MTE,22
8.04,-0.642372,-0.269291,1.643214,-0.774617,0.424086,-0.469169,0.029881,-0.000106,0.022986,0.855596,-0.220407,-0.465657,0.050388,18.0,3.0,13.0,MTE,22
8.05,-0.432488,-0.222901,1.718622,-0.768504,0.439531,-0.464988,0.043971,0.002959,0.059684,0.853984,-0.226519,-0.464968,0.056609,18.0,3.0,13.0,MTE,22
8.06,-0.612838,-0.158778,1.718068,-0.761633,0.455081,-0.461321,0.067724,0.009,0.065432,0.852459,-0.232615,-0.463929,0.06304,18.0,3.0,13.0,MTE,22
8.07,-0.73815,-0.211262,1.688251,-0.75453,0.471232,-0.456755,0.067091,-0.067179,0.011244,0.850666,-0.239496,-0.462887,0.068884,18.0,3.0,13.0,MTE,22
8.08,-0.730814,-0.294726,1.704473,-0.747592,0.487205,-0.451373,0.091967,-0.19419,-0.009244,0.848588,-0.246363,-0.462189,0.074735,18.0,3.0,13.0,MTE,22
8.09,-0.964007,-0.329754,1.754916,-0.740396,0.503946,-0.444804,0.101954,-0.146006,0.049327,0.846121,-0.253871,-0.461679,0.080506,18.0,3.0,13.0,MTE,22
8.1,-0.890076,-0.326127,1.780799,-0.732785,0.521146,-0.43753,0.089246,-0.058378,0.049652,0.843403,-0.261801,-0.461188,0.086231,18.0,3.0,13.0,MTE,22
8.11,-0.74743,-0.299233,1.808046,-0.724593,0.537836,-0.430926,0.076018,-0.007273,0.036318,0.840797,-0.269275,-0.460465,0.092326,18.0,3.0,13.0,MTE,22
8.12,-0.544934,-0.30329,1.818979,-0.715996,0.553648,-0.425233,0.071435,0.019198,0.053636,0.838357,-0.276002,-0.459572,0.098865,18.0,3.0,13.0,MTE,22
8.13,-0.530976,-0.281906,1.861698,-0.706856,0.569048,-0.420166,0.056114,-0.009264,0.081055,0.835998,-0.282326,-0.458486,0.105783,18.0,3.0,13.0,MTE,22
8.14,-0.58373,-0.272913,1.872678,-0.6972,0.584526,-0.415019,0.036312,-0.043541,0.065929,0.833547,-0.288782,-0.457269,0.112734,18.0,3.0,13.0,MTE,22
8.15,-0.694829,-0.244361,1.906296,-0.687069,0.60024,-0.409448,0.032559,-0.083562,0.070307,0.830927,-0.295602,-0.455955,0.119521,18.0,3.0,13.0,MTE,22
8.16,-0.782296,-0.224767,1.928268,-0.676307,0.6164,-0.403311,0.035758,-0.113348,0.035422,0.828096,-0.302943,-0.4545,0.126149,18.0,3.0,13.0,MTE,22
8.17,-0.772205,-0.245743,1.939134,-0.665148,0.632533,-0.396838,0.058215,-0.110636,0.002383,0.825107,-0.310431,-0.453005,0.13273,18.0,3.0,13.0,MTE,22
8.18,-0.762456,-0.285772,1.945373,-0.653713,0.648386,-0.390199,0.085414,-0.065714,0.005678,0.821981,-0.317796,-0.45156,0.139452,18.0,3.0,13.0,MTE,22
8.19,-0.682686,-0.292585,1.968336,-0.641959,0.663936,-0.383507,0.104773,-0.029506,0.033516,0.81875,-0.325033,-0.450112,0.146291,18.0,3.0,13.0,MTE,22
8.2,-0.481937,-0.321263,2.011804,-0.62974,0.67884,-0.37763,0.10911,-0.053946,0.039602,0.815607,-0.331673,-0.448528,0.153624,18.0,3.0,13.0,MTE,22
